case,step,cmd_vx,cmd_vy,cmd_yaw,gyro_x,gyro_y,gyro_z,grav_x,grav_y,grav_z,raw_action_abs_max,sent_action_abs_max,q_target_abs_max,q_step_abs_max,BL_hip_joint_raw_action,BL_hip_joint_sent_action,BL_hip_joint_q_target,BL_hip_joint_qd_fake,BR_hip_joint_raw_action,BR_hip_joint_sent_action,BR_hip_joint_q_target,BR_hip_joint_qd_fake,FL_hip_joint_raw_action,FL_hip_joint_sent_action,FL_hip_joint_q_target,FL_hip_joint_qd_fake,FR_hip_joint_raw_action,FR_hip_joint_sent_action,FR_hip_joint_q_target,FR_hip_joint_qd_fake,BL_thigh_joint_raw_action,BL_thigh_joint_sent_action,BL_thigh_joint_q_target,BL_thigh_joint_qd_fake,BR_thigh_joint_raw_action,BR_thigh_joint_sent_action,BR_thigh_joint_q_target,BR_thigh_joint_qd_fake,FL_thigh_joint_raw_action,FL_thigh_joint_sent_action,FL_thigh_joint_q_target,FL_thigh_joint_qd_fake,FR_thigh_joint_raw_action,FR_thigh_joint_sent_action,FR_thigh_joint_q_target,FR_thigh_joint_qd_fake,BL_calf_joint_raw_action,BL_calf_joint_sent_action,BL_calf_joint_q_target,BL_calf_joint_qd_fake,BR_calf_joint_raw_action,BR_calf_joint_sent_action,BR_calf_joint_q_target,BR_calf_joint_qd_fake,FL_calf_joint_raw_action,FL_calf_joint_sent_action,FL_calf_joint_q_target,FL_calf_joint_qd_fake,FR_calf_joint_raw_action,FR_calf_joint_sent_action,FR_calf_joint_q_target,FR_calf_joint_qd_fake
flat_fake__forward_slow,0,0.07500000298023224,0.0,0.0,0.0,0.0,0.0,0.0,0.0,-1.0,2.410456895828247,0.00711111119017005,0.0017777777975425124,0.0,0.2127513587474823,0.0035458558704704046,0.0008864639676176012,0.04432319849729538,-0.06285101920366287,-0.0010475170565769076,-0.0002618792641442269,-0.013093963265419006,0.4888995289802551,0.00711111119017005,0.0017777777975425124,0.08888889104127884,0.913722813129425,0.00711111119017005,0.0017777777975425124,0.08888889104127884,-0.536078929901123,-0.00711111119017005,-0.0017777777975425124,-0.08888889104127884,0.14549890160560608,0.002424981677904725,0.0006062454194761813,0.030312271788716316,0.2785852253437042,0.004643087275326252,0.001160771818831563,0.05803859233856201,-0.5549368262290955,-0.00711111119017005,-0.0017777777975425124,-0.08888889104127884,-1.257502794265747,-0.00711111119017005,-0.0017777777975425124,-0.08888889104127884,1.8695224523544312,0.00711111119017005,0.0017777777975425124,0.08888889104127884,-1.110440969467163,-0.00711111119017005,-0.0017777777975425124,-0.08888889104127884,2.410456895828247,0.00711111119017005,0.0017777777975425124,0.08888889104127884
flat_fake__forward_slow,1,0.07500000298023224,0.0,0.0,0.0,0.0,0.0,0.0,0.0,-1.0,2.52843976020813,0.014538271352648735,0.0036345678381621838,0.0,0.37316855788230896,0.012478350661695004,0.003119587665423751,0.11165618151426315,0.04599972814321518,0.0015216850442811847,0.00038042126107029617,0.03211502730846405,0.28895682096481323,0.009710907004773617,0.002427726751193404,0.03249744698405266,1.457376480102539,0.014538271352648735,0.0036345678381621838,0.09283950179815292,-0.36918583512306213,-0.01238520722836256,-0.00309630180709064,-0.0659262016415596,0.2829560339450836,0.009458811953663826,0.0023647029884159565,0.08792288601398468,-0.0061551108956336975,-0.0001535805204184726,-3.8395170122385025e-05,-0.05995834991335869,-0.6692123413085938,-0.014538271352648735,-0.0036345678381621838,-0.09283950179815292,-0.8660017848014832,-0.014538271352648735,-0.0036345678381621838,-0.09283950179815292,1.5704071521759033,0.014538271352648735,0.0036345678381621838,0.09283950179815292,-0.6290591359138489,-0.014538271352648735,-0.0036345678381621838,-0.09283950179815292,2.52843976020813,0.014538271352648735,0.0036345678381621838,0.09283950179815292
flat_fake__forward_slow,2,0.07500000298023224,0.0,0.0,0.0,0.0,0.0,0.0,0.0,-1.0,2.743314743041992,0.022302551195025444,0.005575637798756361,0.0,0.4538722634315491,0.022165223956108093,0.005541305989027023,0.12108591943979263,0.1541348695755005,0.007732104975730181,0.0019330262439325452,0.07763025164604187,0.2732056975364685,0.013822133652865887,0.0034555334132164717,0.05139033496379852,1.7903850078582764,0.022302551195025444,0.005575637798756361,0.09705349802970886,-0.3103783428668976,-0.015725338831543922,-0.003931334707885981,-0.041751645505428314,0.31960204243659973,0.016137750819325447,0.004034437704831362,0.08348673582077026,-0.1461271047592163,-0.0073089152574539185,-0.0018272288143634796,-0.0894416868686676,-0.7579277753829956,-0.022302551195025444,-0.005575637798756361,-0.09705349802970886,-0.9276770353317261,-0.022302551195025444,-0.005575637798756361,-0.09705349802970886,1.4680030345916748,0.022302551195025444,0.005575637798756361,0.09705349802970886,-0.536858856678009,-0.022302551195025444,-0.005575637798756361,-0.09705349802970886,2.743314743041992,0.022302551195025444,0.005575637798756361,0.09705349802970886
flat_fake__forward_slow,3,0.07500000298023224,0.0,0.0,0.0,0.0,0.0,0.0,0.0,-1.0,2.8467936515808105,0.030426891520619392,0.007606722880154848,0.0,0.5042082071304321,0.03041468746960163,0.007603671867400408,0.10311829298734665,0.20484286546707153,0.013828015886247158,0.0034570039715617895,0.07619889080524445,0.24515366554260254,0.016650736331939697,0.004162684082984924,0.035357534885406494,2.0038094520568848,0.030426891520619392,0.007606722880154848,0.1015542596578598,-0.24992433190345764,-0.017011074349284172,-0.004252768587321043,-0.01607169397175312,0.3494063913822174,0.023652376607060432,0.005913094151765108,0.09393282234668732,-0.2530725598335266,-0.017033925279974937,-0.004258481319993734,-0.12156262993812561,-0.7709314823150635,-0.030426891520619392,-0.007606722880154848,-0.1015542596578598,-0.9379740357398987,-0.030426891520619392,-0.007606722880154848,-0.1015542596578598,1.3049962520599365,0.030426891520619392,0.007606722880154848,0.1015542596578598,-0.46152710914611816,-0.030426891520619392,-0.007606722880154848,-0.1015542596578598,2.8467936515808105,0.030426891520619392,0.007606722880154848,0.1015542596578598
flat_fake__forward_slow,4,0.07500000298023224,0.0,0.0,0.0,0.0,0.0,0.0,0.0,-1.0,2.945786237716675,0.038936320692300797,0.009734080173075199,0.0,0.5445027351379395,0.038934964686632156,0.009733741171658039,0.10650346428155899,0.23273667693138123,0.019778834655880928,0.004944708663970232,0.07438523322343826,0.22575163841247559,0.019275156781077385,0.004818789195269346,0.03280525654554367,2.110631227493286,0.038936320692300797,0.009734080173075199,0.10636786371469498,-0.197408527135849,-0.016923239454627037,-0.004230809863656759,0.0010979361832141876,0.35040271282196045,0.02985723875463009,0.007464309688657522,0.07756077498197556,-0.29999324679374695,-0.025472601875662804,-0.006368150468915701,-0.10548345744609833,-0.7528070211410522,-0.038936320692300797,-0.009734080173075199,-0.10636786371469498,-0.9686475396156311,-0.038936320692300797,-0.009734080173075199,-0.10636786371469498,1.1950181722640991,0.038936320692300797,0.009734080173075199,0.10636786371469498,-0.43320029973983765,-0.03694521263241768,-0.00923630315810442,-0.081479012966156,2.945786237716675,0.038936320692300797,0.009734080173075199,0.10636786371469498
flat_fake__forward_slow,5,0.07500000298023224,0.0,0.0,0.0,0.0,0.0,0.0,0.0,-1.0,2.9987759590148926,0.04785817861557007,0.011964544653892517,0.0,0.5778447985649109,0.04785799980163574,0.011964499950408936,0.11153794080018997,0.23812660574913025,0.024471955373883247,0.006117988843470812,0.05866400897502899,0.21595782041549683,0.022238288074731827,0.005559572018682957,0.0370391421020031,2.175327777862549,0.04785817861557007,0.011964544653892517,0.11152322590351105,-0.15295466780662537,-0.0158595759421587,-0.003964893985539675,0.013295793905854225,0.3372662365436554,0.034721869975328445,0.008680467493832111,0.06080789119005203,-0.327633261680603,-0.033612415194511414,-0.008403103798627853,-0.10174766927957535,-0.7191720008850098,-0.04785817861557007,-0.011964544653892517,-0.11152322590351105,-0.9690443873405457,-0.04785817861557007,-0.011964544653892517,-0.11152322590351105,1.0900195837020874,0.04785817861557007,0.011964544653892517,0.11152322590351105,-0.38909441232681274,-0.04014095291495323,-0.010035238228738308,-0.03994675353169441,2.9987759590148926,0.04785817861557007,0.011964544653892517,0.11152322590351105
flat_fake__forward_slow,6,0.07500000298023224,0.0,0.0,0.0,0.0,0.0,0.0,0.0,-1.0,3.0460205078125,0.057222384959459305,0.014305596239864826,0.0,0.6114876866340637,0.05722235515713692,0.01430558878928423,0.11705444753170013,0.23820069432258606,0.02874176949262619,0.0071854423731565475,0.05337267741560936,0.21261878311634064,0.025670349597930908,0.006417587399482727,0.04290077090263367,2.2089476585388184,0.057222384959459305,0.014305596239864826,0.1170525848865509,-0.11720457673072815,-0.01429062895476818,-0.003572657238692045,0.019611837342381477,0.309647798538208,0.03747587278485298,0.009368968196213245,0.0344250351190567,-0.3280857503414154,-0.03958381712436676,-0.00989595428109169,-0.07464252412319183,-0.6884845495223999,-0.057222384959459305,-0.014305596239864826,-0.1170525848865509,-0.9769811630249023,-0.057222384959459305,-0.014305596239864826,-0.1170525848865509,1.016215205192566,0.057222384959459305,0.014305596239864826,0.1170525848865509,-0.3506624102592468,-0.04247165098786354,-0.010617912746965885,-0.02913372591137886,3.0460205078125,0.057222384959459305,0.014305596239864826,0.1170525848865509
flat_fake__forward_slow,7,0.07500000298023224,0.0,0.0,0.0,0.0,0.0,0.0,0.0,-1.0,3.0815513134002686,0.06706175953149796,0.01676543988287449,0.0,0.6419882774353027,0.06706175208091736,0.01676543802022934,0.12299246340990067,0.2324066162109375,0.032264962792396545,0.008066240698099136,0.04403991624712944,0.20855951309204102,0.028948839753866196,0.007237209938466549,0.04098112881183624,2.227857828140259,0.06706175953149796,0.01676543988287449,0.12299218773841858,-0.08758816123008728,-0.012313560582697392,-0.003078390145674348,0.02471335604786873,0.2934311330318451,0.04078974574804306,0.010197436437010765,0.04142341390252113,-0.3393971920013428,-0.04701223969459534,-0.011753059923648834,-0.09285528212785721,-0.6542677283287048,-0.06706175953149796,-0.01676543988287449,-0.12299218773841858,-0.9727736115455627,-0.06706175953149796,-0.01676543988287449,-0.12299218773841858,0.9437269568443298,0.06706175953149796,0.01676543988287449,0.12299218773841858,-0.2993333339691162,-0.04179874062538147,-0.010449685156345367,0.008411379531025887,3.0815513134002686,0.06706175953149796,0.01676543988287449,0.12299218773841858
flat_fake__forward_slow,8,0.07500000298023224,0.0,0.0,0.0,0.0,0.0,0.0,0.0,-1.0,3.129394769668579,0.07741235196590424,0.01935308799147606,0.0,0.672104001045227,0.07741235196590424,0.01935308799147606,0.12938250601291656,0.22343823313713074,0.03512898087501526,0.008782245218753815,0.03580022603273392,0.2051510214805603,0.03222009539604187,0.008055023849010468,0.04089069738984108,2.229830026626587,0.07741235196590424,0.01935308799147606,0.1293824017047882,-0.06319025158882141,-0.010094216093420982,-0.0025235540233552456,0.0277418065816164,0.25970369577407837,0.040995042771101,0.01024876069277525,0.0025662127882242203,-0.31878888607025146,-0.05016894266009331,-0.012542235665023327,-0.03945878893136978,-0.6245172023773193,-0.07741235196590424,-0.01935308799147606,-0.1293824017047882,-0.9921961426734924,-0.07741235196590424,-0.01935308799147606,-0.1293824017047882,0.8974738717079163,0.07741235196590424,0.01935308799147606,0.1293824017047882,-0.2706104516983032,-0.0426815040409565,-0.010670376010239124,-0.011034542694687843,3.129394769668579,0.07741235196590424,0.01935308799147606,0.1293824017047882
flat_fake__forward_slow,9,0.07500000298023224,0.0,0.0,0.0,0.0,0.0,0.0,0.0,-1.0,3.150099992752075,0.08831385523080826,0.022078463807702065,0.0,0.6993471384048462,0.08831385523080826,0.022078463807702065,0.13626879453659058,0.21045029163360596,0.03702665865421295,0.009256664663553238,0.02372097223997116,0.20272499322891235,0.035577502101659775,0.008894375525414944,0.04196758568286896,2.2200281620025635,0.08831385523080826,0.022078463807702065,0.13626879453659058,-0.0384024977684021,-0.0069612059742212296,-0.0017403014935553074,0.03916262835264206,0.2585218548774719,0.04536448046565056,0.01134112011641264,0.05461797118186951,-0.34137672185897827,-0.05968328192830086,-0.014920820482075214,-0.11892924457788467,-0.5870366096496582,-0.08831385523080826,-0.022078463807702065,-0.13626879453659058,-0.9744849801063538,-0.08831385523080826,-0.022078463807702065,-0.13626879453659058,0.8247113227844238,0.08831385523080826,0.022078463807702065,0.13626879453659058,-0.20498515665531158,-0.036535389721393585,-0.009133847430348396,0.07682643085718155,3.150099992752075,0.08831385523080826,0.022078463807702065,0.13626879453659058
flat_fake__forward_slow,10,0.07500000298023224,0.0,0.0,0.0,0.0,0.0,0.0,0.0,-1.0,3.208789587020874,0.09981004893779755,0.024952512234449387,0.0,0.7259218096733093,0.09981004893779755,0.024952512234449387,0.1437024176120758,0.19523385167121887,0.03805561363697052,0.00951390340924263,0.012861937284469604,0.19731475412845612,0.03834855183959007,0.009587137959897518,0.03463812172412872,2.198540449142456,0.09981004893779755,0.024952512234449387,0.1437024176120758,-0.024560213088989258,-0.004928112495690584,-0.001232028123922646,0.025413669645786285,0.2017689049243927,0.03976324200630188,0.00994081050157547,-0.07001548260450363,-0.2804967164993286,-0.05507170781493187,-0.013767926953732967,0.05764467641711235,-0.5578497052192688,-0.09981004893779755,-0.024952512234449387,-0.1437024176120758,-1.0260154008865356,-0.09981004893779755,-0.024952512234449387,-0.1437024176120758,0.810746431350708,0.09981004893779755,0.024952512234449387,0.1437024176120758,-0.20722652971744537,-0.04022424668073654,-0.010056061670184135,-0.04611071199178696,3.208789587020874,0.09981004893779755,0.024952512234449387,0.1437024176120758
flat_fake__forward_slow,11,0.07500000298023224,0.0,0.0,0.0,0.0,0.0,0.0,0.0,-1.0,3.178485870361328,0.11194935441017151,0.027987338602542877,0.0,0.7562642097473145,0.11194935441017151,0.027987338602542877,0.15174132585525513,0.17803186178207397,0.03814341500401497,0.009535853751003742,0.0010975170880556107,0.19594591856002808,0.041745755821466446,0.010436438955366611,0.042465049773454666,2.1554741859436035,0.11194935441017151,0.027987338602542877,0.15174132585525513,0.013890773057937622,0.002449613995850086,0.0006124034989625216,0.09222158044576645,0.24078044295310974,0.05080696940422058,0.012701742351055145,0.13804659247398376,-0.3570566773414612,-0.07508279383182526,-0.018770698457956314,-0.2501385807991028,-0.5186825394630432,-0.11039052903652191,-0.027597632259130478,-0.13225600123405457,-0.9534665942192078,-0.11194935441017151,-0.027987338602542877,-0.15174132585525513,0.7056642770767212,0.11194935441017151,0.027987338602542877,0.15174132585525513,-0.09595943987369537,-0.021873507648706436,-0.005468376912176609,0.22938424348831177,3.178485870361328,0.11194935441017151,0.027987338602542877,0.15174132585525513
flat_fake__forward_slow,12,0.07500000298023224,0.0,0.0,0.0,0.0,0.0,0.0,0.0,-1.0,3.28918719291687,0.12478537112474442,0.031196342781186104,0.0,0.7646872997283936,0.12478537112474442,0.031196342781186104,0.16045020520687103,0.15728026628494263,0.03683219477534294,0.009208048693835735,-0.016390252858400345,0.19182920455932617,0.04457797110080719,0.011144492775201797,0.03540269285440445,2.1296885013580322,0.12478537112474442,0.031196342781186104,0.16045020520687103,-0.00798073410987854,-0.0015522426692768931,-0.00038806069642305374,-0.05002320930361748,0.11848217248916626,0.029340531677007675,0.007335132919251919,-0.26833048462867737,-0.20145192742347717,-0.0490705668926239,-0.012267641723155975,0.32515284419059753,-0.4793469309806824,-0.11183115839958191,-0.027957789599895477,-0.01800786703824997,-1.1096596717834473,-0.12478537112474442,-0.031196342781186104,-0.16045020520687103,0.7636150121688843,0.12478537112474442,0.031196342781186104,0.16045020520687103,-0.18789280951023102,-0.042289867997169495,-0.010572466999292374,-0.2552044987678528,3.28918719291687,0.12478537112474442,0.031196342781186104,0.16045020520687103
flat_fake__forward_slow,13,0.07500000298023224,0.0,0.0,0.0,0.0,0.0,0.0,0.0,-1.0,3.067681312561035,0.13837766647338867,0.03459441661834717,0.0,0.7499308586120605,0.13837766647338867,0.03459441661834717,0.1699036955833435,0.21074903011322021,0.052039504051208496,0.013009876012802124,0.19009137153625488,0.21131838858127594,0.05277480185031891,0.013193700462579727,0.10246038436889648,2.065167188644409,0.13837766647338867,0.03459441661834717,0.1699036955833435,0.12647512555122375,0.029390132054686546,0.007347533013671637,0.38677969574928284,0.21696290373802185,0.052906718105077744,0.013226679526269436,0.29457733035087585,-0.40634703636169434,-0.09863091260194778,-0.024657728150486946,-0.6195043325424194,-0.5985360145568848,-0.13434746861457825,-0.03358686715364456,-0.2814538776874542,-0.9279718995094299,-0.13837766647338867,-0.03459441661834717,-0.1699036955833435,0.6439703106880188,0.13837766647338867,0.03459441661834717,0.1699036955833435,-0.0066437870264053345,-0.0048394291661679745,-0.0012098569422960281,0.468130499124527,3.067681312561035,0.13837766647338867,0.03459441661834717,0.1699036955833435
flat_fake__forward_slow,14,0.07500000298023224,0.0,0.0,0.0,0.0,0.0,0.0,0.0,-1.0,3.350734233856201,0.1527925580739975,0.038198139518499374,0.0,0.8660129308700562,0.1527925580739975,0.038198139518499374,0.18018615245819092,0.10592613369226456,0.030818160623311996,0.007704540155827999,-0.2652668058872223,0.09668385982513428,0.02856886386871338,0.007142215967178345,-0.3025742173194885,2.0153539180755615,0.1527925580739975,0.038198139518499374,0.18018615245819092,0.009855568408966064,0.004913070239126682,0.0012282677926123142,-0.30596327781677246,0.03043513000011444,0.01201767660677433,0.00300441961735487,-0.5111129879951477,-0.1326262354850769,-0.04137580096721649,-0.010343950241804123,0.7156888842582703,-0.2885087728500366,-0.08332281559705734,-0.020830703899264336,0.6378082036972046,-1.1584895849227905,-0.1527925580739975,-0.038198139518499374,-0.18018615245819092,0.6733030080795288,0.1527925580739975,0.038198139518499374,0.18018615245819092,-0.18897153437137604,-0.0476461723446846,-0.01191154308617115,-0.5350843071937561,3.350734233856201,0.1527925580739975,0.038198139518499374,0.18018615245819092
flat_fake__forward_slow,15,0.07500000298023224,0.0,0.0,0.0,0.0,0.0,0.0,0.0,-1.0,2.850951910018921,0.16810402274131775,0.04202600568532944,0.0,0.5607101917266846,0.16310429573059082,0.040776073932647705,0.12889672815799713,0.43502068519592285,0.11874490231275558,0.029686227440834045,1.0990843772888184,0.43577274680137634,0.11874552071094513,0.029686380177736282,1.1272082328796387,2.0173213481903076,0.16810402274131775,0.04202600568532944,0.19139331579208374,0.3801693618297577,0.10181521624326706,0.025453804060816765,1.211276888847351,0.04495313763618469,0.013055741786956787,0.0032639354467391968,0.012975791469216347,-0.4162290096282959,-0.11467225849628448,-0.02866806462407112,-0.9162057638168335,-1.066385269165039,-0.14340366423130035,-0.03585091605782509,-0.7510105967521667,-1.1489845514297485,-0.16810402274131775,-0.04202600568532944,-0.19139331579208374,0.7595741748809814,0.16810402274131775,0.04202600568532944,0.19139331579208374,-0.023450568318367004,-0.010488700121641159,-0.0026221750304102898,0.46446841955184937,2.850951910018921,0.16810402274131775,0.04202600568532944,0.19139331579208374
flat_fake__forward_slow,16,0.07500000298023224,0.0,0.0,0.0,0.0,0.0,0.0,0.0,-1.0,3.235722780227661,0.18439485132694244,0.04609871283173561,0.0,1.2426294088363647,0.18250606954097748,0.04562651738524437,0.24252218008041382,0.23312842845916748,0.0772678554058075,0.019316963851451874,-0.5184631943702698,-0.167196124792099,-0.036157380789518356,-0.009039346128702164,-1.9362863302230835,2.0295979976654053,0.18439485132694244,0.04609871283173561,0.20363536477088928,0.07479378581047058,0.030807456001639366,0.007701864466071129,-0.8875970244407654,0.07500894367694855,0.022485576570034027,0.005621394142508507,0.1178729385137558,-0.2008126974105835,-0.06772708892822266,-0.016931772232055664,0.5868146419525146,-0.2656766176223755,-0.08881872147321701,-0.022204680368304253,0.6823117733001709,-0.8761805295944214,-0.18439485132694244,-0.04609871283173561,-0.20363536477088928,0.5221024751663208,0.1638055294752121,0.040951382368803024,-0.05373116582632065,-0.14130981266498566,-0.041028380393981934,-0.010257095098495483,-0.3817460238933563,3.235722780227661,0.18439485132694244,0.04609871283173561,0.20363536477088928
flat_fake__forward_slow,17,0.07500000298023224,0.0,0.0,0.0,0.0,0.0,0.0,0.0,-1.0,3.0925402641296387,0.20175793766975403,0.05043948441743851,0.0,0.7699697017669678,0.20100243389606476,0.05025060847401619,0.231204554438591,0.25733816623687744,0.0849282369017601,0.021232059225440025,0.09575477242469788,0.5816095471382141,0.11353705078363419,0.028384264558553696,1.871180534362793,1.8162357807159424,0.20175793766975403,0.05043948441743851,0.2170385867357254,0.3794998228549957,0.11693070083856583,0.029232675209641457,1.0765405893325806,-0.18224839866161346,-0.05242595821619034,-0.013106489554047585,-0.936394214630127,-0.17489176988601685,-0.05924024060368538,-0.014810060150921345,0.10608560591936111,-0.8610377311706543,-0.1635274887084961,-0.04088187217712402,-0.9338595867156982,-1.3304625749588013,-0.20175793766975403,-0.05043948441743851,-0.2170385867357254,0.44597381353378296,0.15017269551753998,0.037543173879384995,-0.1704104244709015,-0.10687847435474396,-0.03616638109087944,-0.00904159527271986,0.060774993151426315,3.0925402641296387,0.20175793766975403,0.05043948441743851,0.2170385867357254
flat_fake__forward_slow,18,0.07500000298023224,0.0,0.0,0.0,0.0,0.0,0.0,0.0,-1.0,2.703732967376709,0.22029781341552734,0.055074453353881836,0.0,1.321994662284851,0.21997879445552826,0.054994698613882065,0.23720450699329376,0.10001208633184433,0.04063514247536659,0.010158785618841648,-0.5536636710166931,-0.16810835897922516,-0.041249848902225494,-0.010312464088201523,-1.934836506843567,1.57854425907135,0.22029781341552734,0.055074453353881836,0.23174844682216644,0.2713772654533386,0.09827882051467896,0.02456970512866974,-0.2331485152244568,0.11966235935688019,0.032359231263399124,0.008089808747172356,1.0598149299621582,-0.28534191846847534,-0.09661141037940979,-0.024152852594852448,-0.4671396315097809,-0.020536795258522034,-0.023764554411172867,-0.005941137671470642,1.7470368146896362,-0.5890486836433411,-0.20782876014709473,-0.05195719003677368,-0.07588528096675873,0.2549201250076294,0.0965762734413147,0.024144068360328674,-0.669955313205719,0.27457237243652344,0.0831303596496582,0.02078258991241455,1.4912093877792358,2.703732967376709,0.22029781341552734,0.055074453353881836,0.23174844682216644
flat_fake__forward_slow,19,0.07500000298023224,0.0,0.0,0.0,0.0,0.0,0.0,0.0,-1.0,3.202632427215576,0.24013236165046692,0.06003309041261673,0.0,0.5257092118263245,0.19967849552631378,0.049919623881578445,-0.25375375151634216,0.41231852769851685,0.14195452630519867,0.03548863157629967,1.2664923667907715,1.0120327472686768,0.12388895452022552,0.03097223863005638,2.064235210418701,2.2394237518310547,0.24013236165046692,0.06003309041261673,0.2479318529367447,-0.14686797559261322,-0.03803612291812897,-0.009509030729532242,-1.7039368152618408,-0.16098815202713013,-0.050067245960235596,-0.012516811490058899,-1.030331015586853,-0.3728039562702179,-0.13500258326530457,-0.03375064581632614,-0.4798896610736847,-0.9764479994773865,-0.15278424322605133,-0.03819606080651283,-1.612746238708496,-1.7150046825408936,-0.2345905601978302,-0.05864764004945755,-0.3345225155353546,0.6266230940818787,0.18514500558376312,0.04628625139594078,1.1071091890335083,-0.06447704136371613,-0.01225564256310463,-0.0030639097094535828,-1.1923249959945679,3.202632427215576,0.24013236165046692,0.06003309041261673,0.2479318529367447
flat_fake__forward_slow,20,0.07500000298023224,0.0,0.0,0.0,0.0,0.0,0.0,0.0,-1.0,3.274590492248535,0.261395126581192,0.065348781645298,0.0,0.9546136856079102,0.2425166219472885,0.06062915548682213,0.535476565361023,0.203305184841156,0.0877181813120842,0.02192954532802105,-0.6779543161392212,-0.345081627368927,-0.09151848405599594,-0.022879619151353836,-2.6925928592681885,1.6552705764770508,0.261395126581192,0.065348781645298,0.2657845616340637,0.5904442071914673,0.13158315420150757,0.03289578855037689,2.1202409267425537,0.14872455596923828,0.046212416142225266,0.011553104966878891,1.2034958600997925,-0.30171719193458557,-0.12135132402181625,-0.030337831005454063,0.1706407517194748,-0.738490104675293,-0.2206326425075531,-0.055158160626888275,-0.8481050133705139,-0.5094429850578308,-0.2056739330291748,-0.0514184832572937,0.36145785450935364,0.49097633361816406,0.1934419721364975,0.048360493034124374,0.10371208190917969,0.00046418607234954834,-0.0012673598248511553,-0.0003168398980051279,0.13735349476337433,3.274590492248535,0.261395126581192,0.065348781645298,0.2657845616340637
flat_fake__forward_slow,21,0.07500000298023224,0.0,0.0,0.0,0.0,0.0,0.0,0.0,-1.0,3.003035545349121,0.2842376232147217,0.07105940580368042,0.0,0.39128854870796204,0.1731133908033371,0.043278347700834274,-0.8675404191017151,-0.35396790504455566,-0.11355999112129211,-0.028389999642968178,-2.515977382659912,0.7675363421440125,0.1117020696401596,0.0279255174100399,2.540256977081299,1.1122173070907593,0.2842376232147217,0.07105940580368042,0.285531222820282,0.5482412576675415,0.21710416674613953,0.05427604168653488,1.0690126419067383,-0.38156506419181824,-0.13385170698165894,-0.033462926745414734,-2.2508015632629395,-0.027073673903942108,-0.02475884184241295,-0.0061897095292806625,1.2074060440063477,0.7508746385574341,0.04857959225773811,0.012144900858402252,3.3651530742645264,-1.2725416421890259,-0.25699615478515625,-0.06424903869628906,-0.6415277719497681,-0.4046196937561035,-0.06187281012535095,-0.01546819880604744,-3.191434621810913,1.0443365573883057,0.15582484006881714,0.038956210017204285,1.963652491569519,3.003035545349121,0.2842376232147217,0.07105940580368042,0.285531222820282
flat_fake__forward_slow,22,0.07500000298023224,0.0,0.0,0.0,0.0,0.0,0.0,0.0,-1.0,2.9848711490631104,0.308832585811615,0.07720814645290375,0.0,0.43542662262916565,0.1890335977077484,0.0472583994269371,0.19900259375572205,1.2809921503067017,0.10551378130912781,0.026378443464636803,2.738422155380249,0.18276718258857727,0.08433380722999573,0.021083451807498932,-0.3421033024787903,0.5466887950897217,0.2458833009004593,0.06147082522511482,-0.4794290363788605,0.1318444013595581,0.0782814472913742,0.01957036182284355,-1.7352840900421143,0.07453396916389465,0.011468078009784222,0.0028670206665992737,1.8164974451065063,0.08518514782190323,0.029490677639842033,0.007372669875621796,0.6781190037727356,-1.2756571769714355,-0.13872598111629486,-0.034681495279073715,-2.3413197994232178,-1.2683478593826294,-0.29490914940834045,-0.07372728735208511,-0.47391244769096375,0.8393767476081848,0.13193167746067047,0.03298291936516762,2.422555923461914,0.24873201549053192,0.11525823175907135,0.028814557939767838,-0.5070826411247253,2.9848711490631104,0.308832585811615,0.07720814645290375,0.3074370324611664
flat_fake__forward_slow,23,0.07500000298023224,0.0,0.0,0.0,0.0,0.0,0.0,0.0,-1.0,2.624368667602539,0.33537739515304565,0.08384434878826141,0.0,1.4218709468841553,0.2714845836162567,0.06787114590406418,1.0306373834609985,-0.9979843497276306,-0.11439265310764313,-0.028598161414265633,-2.7488303184509277,0.7963324189186096,0.2156447023153305,0.053911175578832626,1.6413862705230713,2.040555000305176,0.30180442333221436,0.07545110583305359,0.6990140676498413,0.1450783908367157,0.06846888363361359,0.017117220908403397,-0.12265704572200775,-0.46774646639823914,-0.16455036401748657,-0.04113759100437164,-2.200230598449707,-0.1378781795501709,-0.05121918022632599,-0.012804795056581497,-1.0088732242584229,-0.3139920234680176,-0.1440936177968979,-0.03602340444922447,-0.06709545850753784,-0.8243416547775269,-0.327951580286026,-0.0819878950715065,-0.41303038597106934,0.05149109661579132,0.038187332451343536,0.009546833112835884,-1.1718043088912964,-0.4959915280342102,-0.10919561237096786,-0.027298901230096817,-2.805673122406006,2.624368667602539,0.33537739515304565,0.08384434878826141,0.3318101167678833
flat_fake__forward_slow,24,0.07500000298023224,0.0,0.0,0.0,0.0,0.0,0.0,0.0,-1.0,2.4852285385131836,0.36409857869148254,0.09102464467287064,0.0,0.5666095018386841,0.273793488740921,0.06844837218523026,0.028861314058303833,0.3153904378414154,0.11422630399465561,0.028556575998663902,2.857736825942993,-0.3929080367088318,-0.0579751655459404,-0.01449378952383995,-3.42024827003479,0.7834712862968445,0.345446914434433,0.08636172860860825,0.545531153678894,0.4320186972618103,0.18951734900474548,0.04737933725118637,1.513105869293213,-0.17787903547286987,-0.09697048366069794,-0.024242620915174484,0.8447484970092773,-0.09026654809713364,-0.04472483694553375,-0.011181209236383438,0.08117929100990295,-0.47760850191116333,-0.21901658177375793,-0.054754145443439484,-0.9365370869636536,-1.0344560146331787,-0.35997313261032104,-0.08999328315258026,-0.40026941895484924,0.6647340655326843,0.19899296760559082,0.049748241901397705,2.010070562362671,0.11349843442440033,0.03212495520710945,0.008031237870454788,1.7665070295333862,2.4852285385131836,0.36409857869148254,0.09102464467287064,0.3590148091316223
flat_fake__forward_slow,25,0.07500000298023224,0.0,0.0,0.0,0.0,0.0,0.0,0.0,-1.0,2.35841965675354,0.39525699615478516,0.09881424903869629,0.0,0.9383090734481812,0.34308069944381714,0.08577017486095428,0.8660901784896851,-0.8317986726760864,-0.11889146268367767,-0.02972286380827427,-2.9139721393585205,1.219237208366394,0.1513921320438385,0.037848033010959625,2.617091178894043,0.564508318901062,0.2945181727409363,0.07362954318523407,-0.6366092562675476,0.1338588148355484,0.08538021892309189,0.021345054730772972,-1.3017141819000244,-0.2583855390548706,-0.1259739249944687,-0.03149348124861717,-0.3625430166721344,-0.33446216583251953,-0.151393860578537,-0.03784846514463425,-1.3333628177642822,0.5713423490524292,0.0583459734916687,0.014586493372917175,3.467031955718994,-1.2726508378982544,-0.3928733766078949,-0.09821834415197372,-0.41125306487083435,-0.8149095773696899,-0.06991517543792725,-0.01747879385948181,-3.36135196685791,0.4957398772239685,0.20344997942447662,0.050862494856119156,2.1415629386901855,2.35841965675354,0.39525699615478516,0.09881424903869629,0.38948023319244385
flat_fake__forward_slow,26,0.07500000298023224,0.0,0.0,0.0,0.0,0.0,0.0,0.0,-1.0,1.9240422248840332,0.4291542172431946,0.10728855431079865,0.0,-0.09791131317615509,0.013848424889147282,0.005770176649093628,-4.0,0.49843358993530273,0.12066512554883957,0.030166281387209892,2.994457244873047,0.300875723361969,0.15810289978981018,0.039525724947452545,0.083884596824646,1.5736355781555176,0.3687109053134918,0.09217772632837296,0.9274091720581055,-0.012908831238746643,0.006998057942837477,0.0017495136708021164,-0.9797770977020264,-0.34999537467956543,-0.1763940155506134,-0.04409850388765335,-0.6302511692047119,-0.24257373809814453,-0.13186727464199066,-0.032966818660497665,0.24408233165740967,-1.024469017982483,-0.15699242055416107,-0.03924810513854027,-2.69173002243042,-1.9240422248840332,-0.42772403359413147,-0.10693100839853287,-0.43563321232795715,0.5006933808326721,0.15005089342594147,0.03751272335648537,2.7495758533477783,-0.16359013319015503,-0.04309806600213051,-0.010774515569210052,-3.081850528717041,1.862282395362854,0.4291542172431946,0.10728855431079865,0.4237152636051178
flat_fake__forward_slow,27,0.07500000298023224,0.0,0.0,0.0,0.0,0.0,0.0,0.0,-1.0,4.29573392868042,0.46614041924476624,0.11653510481119156,0.0,1.5107250213623047,0.20772790908813477,0.05193197727203369,2.3080899715423584,-0.5899823307991028,-0.12403058260679245,-0.031007645651698112,-3.0586965084075928,-0.8002779483795166,-0.10073596984148026,-0.025183990597724915,-3.235485792160034,0.32107505202293396,0.20719005167484283,0.05179751291871071,-2.0190107822418213,0.17456528544425964,0.08255238831043243,0.02063809707760811,0.9444292187690735,0.6635310649871826,0.08935483545064926,0.022338710725307465,3.3218607902526855,-0.03152646869421005,-0.0352250412106514,-0.00880626030266285,1.208027958869934,0.4480355978012085,0.10142693668603897,0.025356736034154892,3.2302420139312744,-1.3524043560028076,-0.46525055170059204,-0.11631263792514801,-0.46908149123191833,0.3747621774673462,0.19823026657104492,0.04955756664276123,0.6022421717643738,0.4637589454650879,0.17229454219341278,0.043073635548353195,2.6924076080322266,4.29573392868042,0.46614041924476624,0.11653510481119156,0.4623275399208069
flat_fake__forward_slow,28,0.07500000298023224,0.0,0.0,0.0,0.0,0.0,0.0,0.0,-1.0,2.764385223388672,0.5066238641738892,0.1266559660434723,0.0,0.2801484763622284,0.16887237131595612,0.04221809282898903,-0.4856942296028137,-0.21391594409942627,-0.12337541580200195,-0.03084385395050049,0.00818958505988121,1.313867449760437,0.14130349457263947,0.035325873643159866,3.0254933834075928,2.5793821811676025,0.3397446870803833,0.08493617177009583,1.6569329500198364,0.08031177520751953,0.05211746320128441,0.013029365800321102,-0.38043656945228577,-0.6502987146377563,-0.14863799512386322,-0.037159498780965805,-2.9749104976654053,-0.12081926316022873,-0.06407111883163452,-0.01601777970790863,-0.36057597398757935,-1.2079468965530396,-0.14085820317268372,-0.03521455079317093,-3.028564453125,-2.00620698928833,-0.5060503482818604,-0.1265125870704651,-0.5099974870681763,-0.5728306770324707,-0.07847382873296738,-0.019618459045886993,-3.45880126953125,-0.19149629771709442,-0.06479797512292862,-0.016199495643377304,-2.9636566638946533,2.764385223388672,0.5066238641738892,0.1266559660434723,0.5060430765151978
flat_fake__forward_slow,29,0.07500000298023224,0.0,0.0,0.0,0.0,0.0,0.0,0.0,-1.0,3.43208909034729,0.5510826110839844,0.1377706527709961,0.0,0.9946063756942749,0.3259149193763733,0.08147872984409332,1.9630318880081177,0.06601118296384811,0.012443026527762413,0.0031107552349567413,1.697730541229248,-1.0236648321151733,-0.11913099884986877,-0.029782753437757492,-3.2554314136505127,0.8115407824516296,0.4398297965526581,0.10995744913816452,1.2510639429092407,0.6682262420654297,0.24807831645011902,0.062019579112529755,2.4495105743408203,0.4075010120868683,0.1142413318157196,0.028560329228639603,3.2859914302825928,0.02859308570623398,0.003618021961301565,0.0009045060724020004,0.8461143374443054,0.9711325168609619,0.11942785978317261,0.029856964945793152,3.2535758018493652,-0.3334823548793793,-0.2510828971862793,-0.06277072429656982,3.1870932579040527,0.3522999882698059,0.16101744771003723,0.04025436192750931,2.9936411380767822,0.8297735452651978,0.17013469338417053,0.04253367334604263,2.9366586208343506,3.43208909034729,0.5510826110839844,0.1377706527709961,0.5557343363761902
flat_fake__forward_slow,30,0.07500000298023224,0.0,0.0,0.0,0.0,0.0,0.0,0.0,-1.0,2.781700372695923,0.6000791192054749,0.1500197798013687,0.0,0.6657670736312866,0.4001094698905945,0.10002736747264862,0.9274318814277649,-0.6804920434951782,-0.21187257766723633,-0.05296814441680908,-2.8039450645446777,2.781700372695923,0.1383764147758484,0.034594107419252396,3.2188432216644287,1.823105812072754,0.5234382748603821,0.13085956871509552,1.045106053352356,0.1162760779261589,0.10280057042837143,0.025700144469738007,-1.8159717321395874,-0.6269431114196777,-0.14174485206604004,-0.03543620929121971,-3.199826955795288,-0.09960571676492691,-0.050839852541685104,-0.012709963135421276,-0.6807234883308411,-0.9826180934906006,-0.13817191123962402,-0.034542977809906006,-3.2199971675872803,-1.658107876777649,-0.39341267943382263,-0.09835316985845566,-1.7791223526000977,-0.07855255901813507,-0.012854703702032566,-0.003213677555322647,-2.1734020709991455,0.21563763916492462,0.14071375131607056,0.03517843782901764,-0.3677617907524109,2.4972240924835205,0.6000791192054749,0.1500197798013687,0.6124563813209534
flat_fake__forward_slow,31,0.07500000298023224,0.0,0.0,0.0,0.0,0.0,0.0,0.0,-1.0,2.4018115997314453,0.6542785167694092,0.1635696291923523,0.0,0.47520461678504944,0.3245730698108673,0.08114326745271683,-0.9442050457000732,-0.11567772179841995,-0.09936101734638214,-0.024840254336595535,1.4063944816589355,-0.8015534281730652,-0.12915454804897308,-0.03228863701224327,-3.344137191772461,0.33511993288993835,0.27178633213043213,0.06794658303260803,-3.1456494331359863,0.5487018823623657,0.3006581962108612,0.0751645490527153,2.4732203483581543,-0.1325768381357193,-0.09590673446655273,-0.023976683616638184,0.572976291179657,0.16231772303581238,0.07753125578165054,0.019382812082767487,1.6046388149261475,1.3307793140411377,0.12929996848106384,0.03232499212026596,3.3433985710144043,-0.08830472081899643,-0.1170358881354332,-0.02925897389650345,3.454709768295288,0.5288981795310974,0.21841444075107574,0.054603610187768936,2.890864372253418,0.17024706304073334,0.115814208984375,0.02895355224609375,-0.31124427914619446,2.4018115997314453,0.6542785167694092,0.1635696291923523,0.6774924993515015
flat_fake__forward_slow,32,0.07500000298023224,0.0,0.0,0.0,0.0,0.0,0.0,0.0,-1.0,2.8147873878479004,0.7144709229469299,0.17861773073673248,0.0,0.05510178208351135,0.0898110419511795,0.022452760487794876,-2.934525489807129,-0.6027814745903015,-0.3075314164161682,-0.07688285410404205,-2.6021299362182617,2.387868881225586,0.13995333015918732,0.03498833253979683,3.3638484477996826,2.8147873878479004,0.4339766502380371,0.10849416255950928,2.027379035949707,-0.3789573907852173,-0.014183984138071537,-0.003545999526977539,-3.9355275630950928,-0.711357593536377,-0.3049982786178589,-0.07624956965446472,-2.6136443614959717,-0.4098222553730011,-0.1778104156255722,-0.04445260018110275,-3.1917707920074463,-1.1846585273742676,-0.13984668254852295,-0.03496167063713074,-3.364333152770996,-0.39489421248435974,-0.23864838480949402,-0.059662096202373505,-1.5201561450958252,0.4058171510696411,0.26324209570884705,0.06581052392721176,0.5603457093238831,-0.7534723877906799,-0.14973624050617218,-0.03743405640125275,-3.319380521774292,1.8237462043762207,0.7144709229469299,0.17861773073673248,0.7524051070213318
flat_fake__forward_slow,33,0.07500000298023224,0.0,0.0,0.0,0.0,0.0,0.0,0.0,-1.0,3.716078281402588,0.7816002368927002,0.19540005922317505,0.0,0.8000195026397705,0.3096350133419037,0.07740875333547592,2.7477996349334717,0.18581721186637878,0.00942070223391056,0.0023551732301712036,3.9619014263153076,-2.6919350624084473,-0.1360352635383606,-0.03400881215929985,-3.449857234954834,-0.4772339165210724,0.08611569553613663,0.02849416434764862,-4.0,0.8425363302230835,0.23106098175048828,0.05776524543762207,3.0655622482299805,-0.2054082155227661,-0.17400877177715302,-0.043502192944288254,1.63736891746521,1.1865596771240234,0.10743212699890137,0.026858031749725342,3.5655317306518555,0.5868331789970398,0.13611583411693573,0.03402896225452423,3.4495317935943604,0.1559106409549713,0.04327133670449257,0.010817833244800568,3.523996591567993,1.172555923461914,0.44067177176475525,0.11016794294118881,2.2178709506988525,0.627185583114624,0.1286437213420868,0.0321609303355217,3.4797494411468506,3.716078281402588,0.7816002368927002,0.19540005922317505,0.8391164541244507
flat_fake__forward_slow,34,0.07500000298023224,0.0,0.0,0.0,0.0,0.0,0.0,0.0,-1.0,3.351813793182373,0.5070045590400696,0.1267511397600174,0.0,0.32632991671562195,0.25056591629981995,0.06264147907495499,-0.7383637428283691,-1.7522841691970825,-0.2415616810321808,-0.0603904202580452,-3.137279748916626,1.7266550064086914,0.14308367669582367,0.03577091917395592,3.4889867305755615,2.986194133758545,0.31586775183677673,0.07896693795919418,2.5236387252807617,-0.818853497505188,-0.06917478889226913,-0.017293699085712433,-3.7529473304748535,0.03181588649749756,-0.015275775454938412,-0.0038189440965652466,1.984162449836731,-0.5167205929756165,-0.16533055901527405,-0.04133263975381851,-3.409533739089966,-1.2538738250732422,-0.14302101731300354,-0.035755254328250885,-3.489210844039917,-0.2424585521221161,-0.133020281791687,-0.03325507044792175,-2.2036452293395996,-0.027521297335624695,0.0938558280467987,0.030167944729328156,-4.0,-3.351813793182373,-0.14883266389369965,-0.03720816224813461,-3.468454599380493,0.6086172461509705,0.5070045590400696,0.1267511397600174,-3.432446002960205
flat_fake__forward_slow,35,0.07500000298023224,0.0,0.0,0.0,0.0,0.0,0.0,0.0,-1.0,2.048699140548706,0.6616036295890808,0.1654009073972702,0.0,-0.043767914175987244,0.023852432146668434,0.0059631094336509705,-2.833918571472168,0.040250666439533234,-0.024161934852600098,-0.006040483713150024,2.717496871948242,-1.68654203414917,-0.14153306186199188,-0.03538326546549797,-3.557709217071533,-0.33915334939956665,-0.003305792808532715,-0.0008264482021331787,-3.9896693229675293,0.9748532772064209,0.20066015422344208,0.05016503483057022,3.372936725616455,-0.9551746845245361,-0.2682206332683563,-0.06705515831708908,-3.161810874938965,1.310438632965088,0.12373554706573486,0.030933886766433716,3.61332631111145,-1.1257363557815552,-0.3704168200492859,-0.09260420501232147,-2.842447519302368,0.27656033635139465,0.13933216035366058,0.034833043813705444,3.4044058322906494,1.5700901746749878,0.331084668636322,0.0827711671590805,2.6301612854003906,-0.3412649929523468,-0.23452554643154144,-0.05863138660788536,-1.0711612701416016,2.048699140548706,0.6616036295890808,0.1654009073972702,1.9324884414672852
flat_fake__forward_slow,36,0.07500000298023224,0.0,0.0,0.0,0.0,0.0,0.0,0.0,-1.0,2.1033568382263184,0.569898247718811,0.14247456192970276,0.0,0.7534041404724121,0.2827230989933014,0.07068077474832535,3.2358832359313965,-2.1033568382263184,-0.2829775810241699,-0.07074439525604248,-3.2351956367492676,1.1851723194122314,0.14673948287963867,0.036684874445199966,3.603407144546509,1.276355266571045,0.26039302349090576,0.06509825587272644,3.2962353229522705,0.4753420948982239,0.33437442779541016,0.08359360694885254,1.6714286804199219,-0.5722160339355469,-0.40800079703330994,-0.10200019925832748,-1.747252106666565,-1.0915439128875732,-0.16137298941612244,-0.04034324735403061,-3.563856840133667,-0.14898110926151276,-0.16801293194293976,-0.04200323298573494,2.5300486087799072,-0.2615612745285034,-0.13265563547611237,-0.03316390514373779,-3.3998475074768066,-0.31199854612350464,0.009114067070186138,0.0027711689472198486,-4.0,-0.7078298330307007,-0.45594322681427,-0.1139858067035675,-2.767721176147461,0.7036247253417969,0.569898247718811,0.14247456192970276,-1.1463172435760498
flat_fake__forward_slow,37,0.07500000298023224,0.0,0.0,0.0,0.0,0.0,0.0,0.0,-1.0,2.34478759765625,0.751469612121582,0.1878674030303955,0.0,0.6221424341201782,0.45370954275131226,0.11342738568782806,2.1373305320739746,0.34306037425994873,0.03126337006688118,0.007815845310688019,3.9280121326446533,-0.4371821880340576,-0.14630888402462006,-0.036577221006155014,-3.663104772567749,0.35517069697380066,0.2799133062362671,0.06997832655906677,0.2440035343170166,0.21873915195465088,0.20912495255470276,0.05228123813867569,-1.5656185150146484,0.20849135518074036,-0.07431179285049438,-0.022000201046466827,4.0,0.7436776161193848,0.13395169377326965,0.03348792344331741,3.691558599472046,0.18413116037845612,0.08114700019359589,0.02028675004839897,3.11449933052063,0.04609394818544388,0.0011877537472173572,0.0002969391644001007,1.6730422973632812,0.8605895042419434,0.2779185473918915,0.06947963684797287,3.335423469543457,0.30743658542633057,-0.11479651182889938,-0.03398580849170685,4.0,2.34478759765625,0.751469612121582,0.1878674030303955,2.2696421146392822
flat_fake__forward_slow,38,0.07500000298023224,0.0,0.0,0.0,0.0,0.0,0.0,0.0,-1.0,3.434473752975464,0.5494406819343567,0.13736017048358917,0.0,0.1295679211616516,0.18252287805080414,0.04563072323799133,-3.3898332118988037,-0.9979758858680725,-0.2502383887767792,-0.0625595971941948,-3.5187721252441406,3.434473752975464,0.1505322903394699,0.03763307258486748,3.710514783859253,1.3551349639892578,0.5199248790740967,0.12998121976852417,3.0001447200775146,-0.20750656723976135,-0.08956887573003769,-0.02239222079515457,-3.733673095703125,-0.7402745485305786,-0.34173688292503357,-0.08543422073125839,-3.171700954437256,-1.0801074504852295,-0.16124185919761658,-0.040310464799404144,-3.6899194717407227,-0.9298309087753296,-0.20700593292713165,-0.05175148323178291,-3.601911783218384,-2.061494827270508,-0.2763039469718933,-0.06907598674297333,-3.468646287918091,0.10857750475406647,0.1307910680770874,0.03269776701927185,-1.839093565940857,-1.4185682535171509,-0.37682363390922546,-0.09420590847730637,-3.011005163192749,0.594803512096405,0.5494406819343567,0.13736017048358917,-2.5253617763519287
flat_fake__forward_slow,39,0.07500000298023224,0.0,0.0,0.0,0.0,0.0,0.0,0.0,-1.0,3.431868553161621,0.7728361487388611,0.19320903718471527,0.0,0.34368738532066345,0.2696855664253235,0.06742139160633087,1.0895334482192993,0.3368518650531769,0.06201031431555748,0.015502579510211945,3.903108835220337,-2.996325969696045,-0.15063795447349548,-0.03765948489308357,-3.7646279335021973,-1.7174012660980225,0.17771100997924805,0.04998122155666351,-4.0,0.7569268941879272,0.20482765138149261,0.051206909120082855,3.6799566745758057,-0.3774004876613617,-0.32754185795783997,-0.08188546448945999,0.17743781208992004,1.5693353414535522,0.1411183476448059,0.03527958691120148,3.7795026302337646,1.330315113067627,0.1004391685128212,0.02510979399085045,3.8430638313293457,0.07345900684595108,-0.012428204528987408,-0.0031070485711097717,3.2984468936920166,1.7590436935424805,0.40070316195487976,0.10017579048871994,3.3739013671875,0.8720858097076416,-0.05050990357995033,-0.01420591026544571,4.0,3.431868553161621,0.7728361487388611,0.19320903718471527,2.7924435138702393
flat_fake__forward_slow,40,0.07500000298023224,0.0,0.0,0.0,0.0,0.0,0.0,0.0,-1.0,2.164233922958374,0.45347002148628235,0.11336750537157059,0.0,-0.5229824185371399,-0.04584203287959099,-0.011460505425930023,-3.9440948963165283,-1.4908896684646606,-0.2350572645664215,-0.05876431614160538,-3.7133448123931885,1.5100797414779663,0.15430763363838196,0.03857691213488579,3.8118200302124023,2.164233922958374,0.45347002148628235,0.11336750537157059,3.16931414604187,-0.5565594434738159,-0.10493480414152145,-0.026233702898025513,-3.872030735015869,-0.48204755783081055,-0.40400591492652893,-0.10100147873163223,-0.9558007121086121,-0.7812493443489075,-0.1629810482263565,-0.04074525833129883,-3.8012423515319824,-0.8238365650177002,-0.20004431903362274,-0.050011079758405685,-3.7560436725616455,0.024247415363788605,0.013738198205828667,0.0034345495514571667,0.3270799219608307,0.09875886142253876,0.15875650942325592,0.03968912735581398,-3.0243332386016846,-2.1548702716827393,-0.33757567405700684,-0.08439391851425171,-3.5094006061553955,0.16472643613815308,0.4125840663909912,0.11320903897285461,-4.0
flat_fake__forward_slow,41,0.07500000298023224,0.0,0.0,0.0,0.0,0.0,0.0,0.0,-1.0,3.301337718963623,0.6837451457977295,0.17093628644943237,0.0,0.5519433617591858,0.25588077306747437,0.06397019326686859,3.7715349197387695,0.17340752482414246,0.06653857231140137,0.016634643077850342,3.7699480056762695,-3.301337718963623,-0.15464620292186737,-0.03866155073046684,-3.8619232177734375,-1.7164021730422974,0.1245720237493515,0.03336750715970993,-4.0,0.34655532240867615,0.20072750747203827,0.050181880593299866,3.820779323577881,-0.6826890707015991,-0.5721504092216492,-0.1430376023054123,-2.101806163787842,2.2150001525878906,0.1465510129928589,0.03663775324821472,3.8691506385803223,-0.5158576965332031,-0.4077773988246918,-0.10194434970617294,-2.596663475036621,0.4478358328342438,0.31148895621299744,0.07787223905324936,3.7218847274780273,2.201984405517578,0.4468393921852112,0.1117098480463028,3.601036310195923,-0.7947431802749634,-0.6137372851371765,-0.15343432128429413,-3.4520201683044434,2.7278804779052734,0.6837451457977295,0.17093628644943237,2.8863625526428223
flat_fake__forward_slow,42,0.07500000298023224,0.0,0.0,0.0,0.0,0.0,0.0,0.0,-1.0,3.413356304168701,0.8922378420829773,0.22305946052074432,0.0,-0.35288041830062866,-0.061269477009773254,-0.015317365527153015,-3.9643781185150146,-1.2707228660583496,-0.2421964704990387,-0.060549117624759674,-3.8591880798339844,1.341123342514038,0.1580047309398651,0.03950117900967598,3.9081366062164307,1.930379867553711,0.42481327056884766,0.10620331764221191,3.6417906284332275,-0.5401475429534912,-0.11397148668766022,-0.028492867946624756,-3.9337375164031982,-0.8767540454864502,-0.7650207877159119,-0.19125519692897797,-2.4108798503875732,-0.8405212759971619,-0.16574013233184814,-0.041435033082962036,-3.903639316558838,-0.5133087038993835,-0.4652847349643707,-0.11632118374109268,-0.7188417315483093,0.350903183221817,0.3258918821811676,0.0814729705452919,0.18003657460212708,0.33584892749786377,0.34743672609329224,0.08685918152332306,-1.2425333261489868,-3.413356304168701,-0.8922378420829773,-0.22305946052074432,-3.4812569618225098,-1.0019420385360718,0.3475787043571472,0.09093628823757172,-4.0
flat_fake__forward_slow,43,0.07500000298023224,0.0,0.0,0.0,0.0,0.0,0.0,0.0,-1.0,3.694671869277954,1.0939699411392212,0.2734924852848053,0.0,1.4046419858932495,0.2529809772968292,0.0632452443242073,3.928130626678467,0.24587854743003845,0.07607455551624298,0.019018642604351044,3.9783880710601807,-3.694671869277954,-0.15839536488056183,-0.03959884122014046,-3.95500111579895,-2.2391977310180664,0.1024840921163559,0.026203319430351257,-4.0,-0.04760703444480896,-0.06277152895927429,-0.015692882239818573,0.639999270439148,-0.8222677707672119,-0.7900014519691467,-0.19750036299228668,-0.3122583031654358,3.5773673057556152,0.15083186328411102,0.037707969546318054,3.9571502208709717,-0.18682800233364105,-0.25074347853660583,-0.06268586963415146,2.6817657947540283,0.3800503611564636,0.3583660423755646,0.08959151059389114,0.40592700242996216,2.0159285068511963,0.6526048183441162,0.16315120458602905,3.814601182937622,-1.1943646669387817,-1.0939699411392212,-0.2734924852848053,-2.521651268005371,1.9372228384017944,0.6527436375617981,0.16318590939044952,3.612481117248535
flat_fake__forward_slow,44,0.07500000298023224,0.0,0.0,0.0,0.0,0.0,0.0,0.0,-1.0,2.2630715370178223,1.4139699935913086,0.35349249839782715,0.0,-0.8131030797958374,-0.0670190155506134,-0.01675475388765335,-4.0,-0.39092788100242615,-0.24392543733119965,-0.06098135560750961,-4.0,0.5834754109382629,0.1616046279668808,0.0404011569917202,4.0,1.440368890762329,0.4224840998649597,0.10562102496623993,3.9708852767944336,-0.15077978372573853,-0.12877771258354187,-0.03219442814588547,-0.8250772953033447,-0.49400565028190613,-0.5680046081542969,-0.14200115203857422,2.774960517883301,-1.0911270380020142,-0.1691681295633316,-0.0422920286655426,-4.0,-0.16417692601680756,-0.18581855297088623,-0.04645463824272156,0.8115615844726562,-0.7643978595733643,0.03836604952812195,0.009591512382030487,-4.0,0.009911701083183289,0.3326048254966736,0.0831512063741684,-4.0,-2.2630715370178223,-1.4139699935913086,-0.35349249839782715,-4.000000953674316,-0.7765172123908997,0.33274364471435547,0.08318591117858887,-4.0
flat_fake__forward_slow,45,0.07500000298023224,0.0,0.0,0.0,0.0,0.0,0.0,0.0,-1.0,2.9067516326904297,1.0939700603485107,0.2734925150871277,0.0,1.2121275663375854,0.2529809772968292,0.0632452443242073,4.0,0.8219922780990601,0.07607455551624298,0.019018642604351044,4.0,-2.478055477142334,-0.15839536488056183,-0.03959884122014046,-4.0,-1.7557822465896606,0.10248410701751709,0.025621026754379272,-4.0,0.11787796020507812,0.05621403455734253,0.014053508639335632,2.312397003173828,-0.5811461210250854,-0.5778607130050659,-0.14446517825126648,-0.12320131063461304,1.0476709604263306,0.15083186328411102,0.037707969546318054,4.0,-0.6560167074203491,-0.5058185458183289,-0.12645463645458221,-4.0,-0.428043395280838,-0.2816339433193207,-0.07040848582983017,-4.0,0.918124794960022,0.6526048183441162,0.16315120458602905,4.0,0.026309609413146973,-1.0939700603485107,-0.2734925150871277,3.9999992847442627,2.9067516326904297,0.6527436375617981,0.16318590939044952,4.0
flat_fake__forward_slow,46,0.07500000298023224,0.0,0.0,0.0,0.0,0.0,0.0,0.0,-1.0,1.0517085790634155,0.7739700675010681,0.19349251687526703,0.0,0.2347496747970581,0.2393074929714203,0.05982687324285507,-0.1709185540676117,-0.772502064704895,-0.24392543733119965,-0.06098135560750961,-4.0,1.0517085790634155,0.1616046279668808,0.0404011569917202,4.0,0.5568251609802246,0.4224840998649597,0.10562102496623993,4.0,-0.18040984869003296,-0.12125387787818909,-0.03031346946954727,-2.218348979949951,-0.38920286297798157,-0.43636733293533325,-0.10909183323383331,1.7686673402786255,-0.9251000881195068,-0.1691681295633316,-0.0422920286655426,-4.0,0.9606693983078003,-0.18581855297088623,-0.04645463824272156,4.0,-0.6305367350578308,-0.5433109998703003,-0.13582774996757507,-3.270963191986084,-0.5748047232627869,0.3326048254966736,0.0831512063741684,-4.0,0.4476786255836487,-0.7739700675010681,-0.19349251687526703,4.0,0.219636470079422,0.33274364471435547,0.08318591117858887,-4.0
flat_fake__forward_slow,47,0.07500000298023224,0.0,0.0,0.0,0.0,0.0,0.0,0.0,-1.0,1.7773277759552002,0.7563673257827759,0.18909183144569397,0.0,-0.108204185962677,-0.021326273679733276,-0.005331568419933319,-3.2579221725463867,0.4647331237792969,0.07607455551624298,0.019018642604351044,4.0,-1.0435069799423218,-0.15839536488056183,-0.03959884122014046,-4.0,-1.7773277759552002,0.10248410701751709,0.025621026754379272,-4.0,0.45094069838523865,0.19874611496925354,0.049686528742313385,4.0,-1.163214921951294,-0.7563673257827759,-0.18909183144569397,-4.0,0.9071228504180908,0.15083186328411102,0.037707969546318054,4.0,-0.511848509311676,-0.43034103512763977,-0.10758525878190994,-3.0565311908721924,-0.4440629780292511,-0.468874990940094,-0.1172187477350235,0.9304501414299011,0.9979617595672607,0.6526048183441162,0.16315120458602905,4.0,-0.1025998443365097,-0.4539700746536255,-0.11349251866340637,4.0,1.3906607627868652,0.6527436375617981,0.16318590939044952,4.0
flat_fake__forward_slow,48,0.07500000298023224,0.0,0.0,0.0,0.0,0.0,0.0,0.0,-1.0,2.1915268898010254,0.9727436304092407,0.24318590760231018,0.0,0.8912163376808167,0.29867371916770935,0.07466842979192734,4.0,-2.1915268898010254,-0.24392543733119965,-0.06098135560750961,-4.0,1.9958531856536865,0.1616046279668808,0.0404011569917202,4.0,0.3886276185512543,0.3170917332172394,0.07927293330430984,2.6825954914093018,0.36019930243492126,0.31983599066734314,0.07995899766683578,1.5136234760284424,-0.5002166032791138,-0.5642542839050293,-0.14106357097625732,2.4014129638671875,-1.1756906509399414,-0.1691681295633316,-0.0422920286655426,-4.0,0.1624010056257248,-0.11034104228019714,-0.027585260570049286,4.0,-0.6688619256019592,-0.6188651919364929,-0.15471629798412323,-1.8748775720596313,-1.206883192062378,0.3326048254966736,0.0831512063741684,-4.0,0.35626912117004395,-0.13397008180618286,-0.033492520451545715,4.0,1.1045881509780884,0.9727436304092407,0.24318590760231018,4.0
flat_fake__forward_slow,49,0.07500000298023224,0.0,0.0,0.0,0.0,0.0,0.0,0.0,-1.0,0.6626209020614624,0.7094336748123169,0.17735841870307922,0.0,0.30046212673187256,0.30001503229141235,0.07500375807285309,0.016766414046287537,-0.3424295485019684,-0.3178035318851471,-0.07945088297128677,-0.9234763979911804,0.6063805222511292,0.4816046357154846,0.12040115892887115,4.0,-0.6626209020614624,-0.002908259630203247,-0.0007270649075508118,-4.0,-0.10409218072891235,0.0018898546695709229,0.0004724636673927307,-3.9743268489837646,-0.20958155393600464,-0.2982497215270996,-0.0745624303817749,3.325057029724121,0.45543172955513,0.15083186328411102,0.037707969546318054,4.0,-0.20262262225151062,-0.17955222725868225,-0.04488805681467056,-0.8651398420333862,-0.03541811555624008,-0.2988651990890503,-0.07471629977226257,4.0,0.041899532079696655,0.11457586288452148,0.02864396572113037,-2.7253620624542236,0.03999848663806915,-0.0034936517477035522,-0.0008734129369258881,1.630955457687378,0.6216637492179871,0.7094336748123169,0.17735841870307922,-3.291374444961548
flat_fake__forward_slow,50,0.07500000298023224,0.0,0.0,0.0,0.0,0.0,0.0,0.0,-1.0,2.138920545578003,0.6182497143745422,0.15456242859363556,0.0,0.23920035362243652,0.2544040083885193,0.06360100209712982,-0.5701377987861633,-0.2906670570373535,-0.2974511682987213,-0.07436279207468033,0.25440454483032227,-0.20033738017082214,0.161604642868042,0.0404011607170105,-4.0,1.9154694080352783,0.3170917332172394,0.07927293330430984,4.0,0.5090852975845337,0.32188984751701355,0.08047246187925339,4.0,-1.0453485250473022,-0.6182497143745422,-0.15456242859363556,-4.0,-1.377244234085083,-0.1691681295633316,-0.0422920286655426,-4.0,-1.106019377708435,-0.4995522201061249,-0.12488805502653122,-4.0,0.36650559306144714,0.021134793758392334,0.0052836984395980835,4.0,1.3790326118469238,0.4345758557319641,0.10864396393299103,4.0,-2.138920545578003,-0.3234936594963074,-0.08087341487407684,-4.0,-1.2567287683486938,0.38943368196487427,0.09735842049121857,-4.0
flat_fake__forward_slow,51,0.07500000298023224,0.0,0.0,0.0,0.0,0.0,0.0,0.0,-1.0,2.5656239986419678,0.7094336748123169,0.17735841870307922,0.0,0.008882256224751472,0.07026270031929016,0.01756567507982254,-2.3017663955688477,-0.8757421374320984,-0.6174511909484863,-0.15436279773712158,-4.000000476837158,-0.15177175402641296,-0.07342764735221863,-0.018356911838054657,-2.937903642654419,-0.9538542628288269,-0.002908259630203247,-0.0007270649075508118,-4.0,0.5194782018661499,0.4700811207294464,0.1175202801823616,1.852391004562378,0.5410723686218262,-0.2982497215270996,-0.0745624303817749,4.0,-0.09308993071317673,-0.1121094822883606,-0.02802737057209015,0.7132329344749451,1.3468093872070312,-0.17955222725868225,-0.04488805681467056,4.0,-1.5783488750457764,-0.2988651990890503,-0.07471629977226257,-4.0,-0.7266148924827576,0.11457586288452148,0.02864396572113037,-4.0,-0.0906543880701065,-0.14886420965194702,-0.037216052412986755,2.182868242263794,2.5656239986419678,0.7094336748123169,0.17735841870307922,4.0
flat_fake__forward_slow,52,0.07500000298023224,0.0,0.0,0.0,0.0,0.0,0.0,0.0,-1.0,3.014914035797119,1.0294337272644043,0.2573584318161011,0.0,0.7173508405685425,0.3902626931667328,0.0975656732916832,4.0,0.5271517038345337,-0.2974511981010437,-0.07436279952526093,4.0,-0.21407893300056458,-0.17891612648963928,-0.04472903162240982,-1.3186060190200806,1.839218020439148,0.3170917332172394,0.07927293330430984,4.0,-0.861497163772583,0.15008112788200378,0.037520281970500946,-4.0,-0.41793397068977356,-0.38801291584968567,-0.09700322896242142,-1.1220399141311646,-0.35799336433410645,-0.2965223789215088,-0.0741305947303772,-2.305161237716675,0.22646324336528778,0.12495937943458557,0.031239844858646393,3.8063950538635254,-1.8170949220657349,-0.6188651919364929,-0.15471629798412323,-4.0,-0.04923561215400696,-0.008282743394374847,-0.002070685848593712,-1.535732626914978,0.678665041923523,0.1711357831954956,0.0427839457988739,4.0,3.014914035797119,1.0294337272644043,0.2573584318161011,4.000000953674316
flat_fake__forward_slow,53,0.07500000298023224,0.0,0.0,0.0,0.0,0.0,0.0,0.0,-1.0,1.3407610654830933,0.9388651847839355,0.2347162961959839,0.0,0.21681302785873413,0.2601754367351532,0.0650438591837883,-1.6260907649993896,0.5393975973129272,0.022548794746398926,0.0056371986865997314,4.0,1.1691938638687134,0.14108386635780334,0.035270966589450836,4.0,0.29829052090644836,0.3029908239841461,0.07574770599603653,-0.17626136541366577,0.3415003716945648,0.29364556074142456,0.07341139018535614,1.794555425643921,-0.30803507566452026,-0.3280295431613922,-0.08200738579034805,0.7497921586036682,0.13672155141830444,0.023477613925933838,0.0058694034814834595,4.0,0.12322807312011719,0.12366089969873428,0.03091522492468357,-0.016230996698141098,-1.3407610654830933,-0.9388651847839355,-0.2347162961959839,-4.0,0.1013839989900589,0.07396731525659561,0.018491828814148903,1.0281257629394531,-0.35609012842178345,-0.14886420965194702,-0.037216052412986755,-4.0,-0.45733457803726196,0.7094337344169617,0.17735843360424042,-4.0
flat_fake__forward_slow,54,0.07500000298023224,0.0,0.0,0.0,0.0,0.0,0.0,0.0,-1.0,2.4975533485412598,0.8848583698272705,0.22121459245681763,0.0,2.4975533485412598,0.5801753997802734,0.14504384994506836,3.999999523162842,0.27112865447998047,0.20898368954658508,0.05224592238664627,2.3304362297058105,-0.09547927975654602,-0.03633849322795868,-0.00908462330698967,-2.2177796363830566,0.601200520992279,0.5266481041908264,0.1316620260477066,2.7957160472869873,0.24834397435188293,0.25966936349868774,0.06491734087467194,-0.4247024655342102,0.016525864601135254,-0.06961297988891602,-0.017403244972229004,3.2302072048187256,-0.13506093621253967,-0.0954262986779213,-0.023856574669480324,-1.48629891872406,-0.12521325051784515,-0.06299471110105515,-0.015748677775263786,-2.333195209503174,-0.6713637113571167,-0.738239049911499,-0.18455976247787476,2.507826805114746,0.3181419372558594,0.2570982873439789,0.06427457183599472,2.289137363433838,-0.5306053161621094,-0.43517005443573,-0.1087925136089325,-3.5788230895996094,0.9433332085609436,0.8848583698272705,0.22121459245681763,2.192807912826538
flat_fake__forward_slow,55,0.07500000298023224,0.0,0.0,0.0,0.0,0.0,0.0,0.0,-1.0,3.546280860900879,1.2048583030700684,0.3012145757675171,0.0,0.13220839202404022,0.2601754069328308,0.0650438517332077,-4.0,-1.9332951307296753,-0.11101630330085754,-0.027754075825214386,-4.0,3.546280860900879,0.28366148471832275,0.07091537117958069,4.0,0.36058804392814636,0.402103066444397,0.10052576661109924,-1.5568130016326904,0.7046939134597778,0.5796693563461304,0.1449173390865326,4.0,-0.029204517602920532,-0.0393066331744194,-0.00982665829360485,0.37882933020591736,0.5945228338241577,0.22457370162010193,0.05614342540502548,4.0,0.7999414205551147,0.2570052742958069,0.06425131857395172,4.0,-0.8892844915390015,-0.8515231013298035,-0.21288077533245087,-1.416050672531128,-0.18154583871364594,-0.06290170550346375,-0.015725426375865936,-4.0,0.46719300746917725,-0.11517006158828735,-0.02879251539707184,4.0,1.3850953578948975,1.2048583030700684,0.3012145757675171,3.9999992847442627
flat_fake__forward_slow,56,0.07500000298023224,0.0,0.0,0.0,0.0,0.0,0.0,0.0,-1.0,1.2868273258209229,0.9907042384147644,0.2476760596036911,0.0,0.7562015056610107,0.5801753997802734,0.14504384994506836,4.0,0.5895208716392517,0.20898368954658508,0.05224592238664627,4.0,-1.173101782798767,-0.03633850812911987,-0.009084627032279968,-4.0,1.2868273258209229,0.7221030592918396,0.1805257648229599,4.0,-0.5108063220977783,0.25966936349868774,0.06491734087467194,-4.0,-0.4428890645503998,-0.34199345111846924,-0.08549836277961731,-3.7835853099823,-1.0355076789855957,-0.0954262912273407,-0.023856572806835175,-4.0,-0.4556536078453064,-0.06299471855163574,-0.015748679637908936,-4.0,-1.0370979309082031,-0.9907042384147644,-0.2476760596036911,-1.7397642135620117,0.6201237440109253,0.2570982873439789,0.06427457183599472,4.0,0.32417458295822144,0.20482993125915527,0.05120748281478882,4.0,0.6628420352935791,0.8848583102226257,0.22121457755565643,-4.0
flat_fake__forward_slow,57,0.07500000298023224,0.0,0.0,0.0,0.0,0.0,0.0,0.0,-1.0,2.5440266132354736,1.310704231262207,0.32767605781555176,0.0,0.41478046774864197,0.45612919330596924,0.11403229832649231,-1.5505776405334473,-1.1050565242767334,-0.11101630330085754,-0.027754075825214386,-4.0,1.224409580230713,0.28366148471832275,0.07091537117958069,4.0,0.0814446285367012,0.402103066444397,0.10052576661109924,-4.0,0.19882294535636902,0.2140345424413681,0.053508635610342026,-0.5704352855682373,0.5101391077041626,-0.02199345827102661,-0.005498364567756653,4.0,0.5648084878921509,0.22457370162010193,0.05614342540502548,4.0,0.40881192684173584,0.2570052742958069,0.06425131857395172,4.0,-2.5440266132354736,-1.310704231262207,-0.32767605781555176,-4.0,-1.160388469696045,-0.06290170550346375,-0.015725426375865936,-4.0,0.6719900369644165,0.5248299241065979,0.13120748102664948,4.0,1.264225959777832,1.1693840026855469,0.2923460006713867,3.5565712451934814
flat_fake__forward_slow,58,0.07500000298023224,0.0,0.0,0.0,0.0,0.0,0.0,0.0,-1.0,2.3248188495635986,1.5552093982696533,0.38880234956741333,0.0,0.17283345758914948,0.24365739524364471,0.06091434881091118,-2.655897617340088,0.06016036123037338,0.0173662006855011,0.004341550171375275,1.6047813892364502,-1.848339557647705,-0.03633850812911987,-0.009084627032279968,-4.0,2.3248188495635986,0.7221030592918396,0.1805257648229599,4.0,-0.2139030396938324,-0.10596545040607452,-0.02649136260151863,-4.0,-0.486909955739975,-0.34199345111846924,-0.08549836277961731,-4.0,-2.2260329723358154,-0.0954262912273407,-0.023856572806835175,-4.0,-1.13230299949646,-0.06299471855163574,-0.015748679637908936,-4.0,-1.6367111206054688,-1.5552093982696533,-0.38880234956741333,-3.056314706802368,0.45618849992752075,0.2570982873439789,0.06427457183599472,4.0,-1.2951682806015015,0.20482993125915527,0.05120748281478882,-4.0,-0.4124557077884674,0.8493840098381042,0.21234600245952606,-4.0
flat_fake__forward_slow,59,0.07500000298023224,0.0,0.0,0.0,0.0,0.0,0.0,0.0,-1.0,2.145590305328369,1.2352094650268555,0.30880236625671387,0.0,1.6157785654067993,0.5636574029922485,0.14091435074806213,4.0,-0.6641656160354614,-0.30263379216194153,-0.07565844804048538,-4.0,-1.3697621822357178,-0.3563385009765625,-0.08908462524414062,-4.0,-0.9134501218795776,0.402103066444397,0.10052576661109924,-4.0,0.9787089824676514,0.2140345424413681,0.053508635610342026,4.0,0.9754581451416016,-0.02199345827102661,-0.005498364567756653,4.0,0.04844961315393448,0.012480638921260834,0.0031201597303152084,1.3488366603851318,-0.2654538154602051,-0.21483904123306274,-0.053709760308265686,-1.8980541229248047,-0.7891855239868164,-1.2352094650268555,-0.30880236625671387,3.9999992847442627,-0.31432855129241943,-0.06290170550346375,-0.015725426375865936,-4.0,-1.3022030591964722,-0.11517006158828735,-0.02879251539707184,-4.0,2.145590305328369,1.1693840026855469,0.2923460006713867,4.0
flat_fake__forward_slow,60,0.07500000298023224,0.0,0.0,0.0,0.0,0.0,0.0,0.0,-1.0,3.8024420738220215,0.9152094721794128,0.2288023680448532,0.0,-0.8790592551231384,0.2436574101448059,0.06091435253620148,-4.0,-1.8895440101623535,-0.6226338148117065,-0.15565845370292664,-4.000000476837158,1.9631298780441284,-0.03633850812911987,-0.009084627032279968,4.0,2.1254608631134033,0.7221030592918396,0.1805257648229599,4.0,-0.7167085409164429,-0.10596545040607452,-0.02649136260151863,-4.0,0.49989333748817444,0.298006534576416,0.074501633644104,4.0,-0.1391761302947998,-0.1012619361281395,-0.025315484032034874,-1.4217822551727295,-0.14185889065265656,-0.1601039320230484,-0.0400259830057621,0.6841889023780823,-0.008561544120311737,-0.9152094721794128,-0.2288023680448532,4.0,-0.2600577473640442,-0.21076872944831848,-0.05269218236207962,-1.8483378887176514,-3.8024420738220215,-0.43517005443573,-0.1087925136089325,-4.0,-0.028026826679706573,0.8493840098381042,0.21234600245952606,-4.0
flat_fake__forward_slow,61,0.07500000298023224,0.0,0.0,0.0,0.0,0.0,0.0,0.0,-1.0,4.946624279022217,0.7551700472831726,0.18879251182079315,0.0,-0.244191974401474,-0.07634258270263672,-0.01908564567565918,-4.0,-0.6284871101379395,-0.6270238161087036,-0.1567559540271759,-0.05487501621246338,-0.998928964138031,-0.3563385009765625,-0.08908462524414062,-4.0,-2.963941812515259,0.402103066444397,0.10052576661109924,-4.0,-0.11176279187202454,-0.11031346023082733,-0.027578365057706833,-0.054350122809410095,-1.0204805135726929,-0.02199345827102661,-0.005498364567756653,-4.0,0.2547833025455475,0.1657719910144806,0.04144299775362015,3.3379242420196533,-0.5986623764038086,-0.48010390996932983,-0.12002597749233246,-4.0,1.5673444271087646,-0.5952094793319702,-0.14880236983299255,4.0,4.946624279022217,0.10923126339912415,0.027307815849781036,4.0,-3.0127041339874268,-0.7551700472831726,-0.18879251182079315,-4.0,-0.6894664168357849,0.5293840169906616,0.1323460042476654,-4.0
flat_fake__forward_slow,62,0.07500000298023224,0.0,0.0,0.0,0.0,0.0,0.0,0.0,-1.0,4.352041721343994,1.0751700401306152,0.2687925100326538,0.0,-0.6673032641410828,-0.39634257555007935,-0.09908564388751984,-4.0,-0.7396097779273987,-0.7114633321762085,-0.17786583304405212,-1.055493950843811,-0.06599956750869751,-0.13858430087566376,-0.03464607521891594,2.7219276428222656,0.4833853542804718,0.4630647897720337,0.11576619744300842,0.762021541595459,0.39010941982269287,0.2096865326166153,0.052421633154153824,4.0,-0.7351852655410767,-0.34199345111846924,-0.08549836277961731,-4.0,-1.8765456676483154,-0.15422800183296204,-0.03855700045824051,-4.0,-0.4358259439468384,-0.44689542055130005,-0.11172385513782501,0.4151061177253723,0.25939124822616577,-0.2752094864845276,-0.0688023716211319,4.0,1.344451904296875,0.4292312562465668,0.1073078140616417,4.0,-4.352041721343994,-1.0751700401306152,-0.2687925100326538,-4.0,-1.783473014831543,0.209384024143219,0.05234600603580475,-4.0
flat_fake__forward_slow,63,0.07500000298023224,0.0,0.0,0.0,0.0,0.0,0.0,0.0,-1.0,3.2698559761047363,0.8808746933937073,0.22021867334842682,0.0,2.678478717803955,-0.07634258270263672,-0.01908564567565918,4.0,-0.1276600956916809,-0.39146333932876587,-0.09786583483219147,4.0,-2.210845947265625,-0.4585843086242676,-0.1146460771560669,-4.0,-1.6228973865509033,0.14306479692459106,0.035766199231147766,-4.0,0.5660006999969482,0.4769221544265747,0.11923053860664368,3.3404455184936523,0.6567236185073853,-0.02199345827102661,-0.005498364567756653,4.0,0.892768144607544,0.1657719910144806,0.04144299775362015,4.0,-0.9871823787689209,-0.7668954133987427,-0.19172385334968567,-4.0,0.22613734006881714,0.04479050636291504,0.01119762659072876,4.0,1.4493590593338013,0.749231219291687,0.18730780482292175,3.999999523162842,-0.8161095976829529,-0.8808746933937073,-0.22021867334842682,2.428691864013672,3.2698559761047363,0.5293840169906616,0.1323460042476654,4.0
flat_fake__forward_slow,64,0.07500000298023224,0.0,0.0,0.0,0.0,0.0,0.0,0.0,-1.0,3.1630477905273438,1.20087468624115,0.3002186715602875,0.0,-0.3905334174633026,-0.31198570132255554,-0.07799642533063889,-2.9455389976501465,-2.1476266384124756,-0.7114633321762085,-0.17786583304405212,-4.0,3.1630477905273438,-0.13858431577682495,-0.03464607894420624,4.0,2.787419080734253,0.4630647897720337,0.11576619744300842,4.0,-1.6800659894943237,0.15692216157913208,0.03923054039478302,-4.0,-0.7392139434814453,-0.34199345111846924,-0.08549836277961731,-4.0,-0.4631834030151367,-0.15422800183296204,-0.03855700045824051,-4.0,0.21601693332195282,-0.44689542055130005,-0.11172385513782501,4.0,0.29501402378082275,0.23245814442634583,0.058114536106586456,2.3458454608917236,0.153086319565773,0.4292312264442444,0.1073078066110611,-4.0,-3.1263058185577393,-1.20087468624115,-0.3002186715602875,-4.0,-0.30485692620277405,0.209384024143219,0.05234600603580475,-4.0
flat_fake__forward_slow,65,0.07500000298023224,0.0,0.0,0.0,0.0,0.0,0.0,0.0,-1.0,2.4748120307922363,0.8808746933937073,0.22021867334842682,0.0,1.0461918115615845,0.008014291524887085,0.0020035728812217712,4.0,0.19258081912994385,-0.39146333932876587,-0.09786583483219147,4.0,-1.5474706888198853,-0.4585843086242676,-0.1146460771560669,-4.0,-1.0848908424377441,0.14306479692459106,0.035766199231147766,-4.0,-0.3843466639518738,-0.16307783126831055,-0.04076945781707764,-4.0,-0.16555769741535187,-0.2096666395664215,-0.05241665989160538,1.6540851593017578,2.357440233230591,0.1657719910144806,0.04144299775362015,4.0,0.3128235340118408,-0.12689542770385742,-0.031723856925964355,4.0,-0.10824789851903915,-0.023071378469467163,-0.005767844617366791,-3.1941192150115967,1.5920085906982422,0.749231219291687,0.18730780482292175,4.0,-0.5244002938270569,-0.8808746933937073,-0.22021867334842682,4.0,2.4748120307922363,0.5293840169906616,0.1323460042476654,4.0
flat_fake__forward_slow,66,0.07500000298023224,0.0,0.0,0.0,0.0,0.0,0.0,0.0,-1.0,1.6868518590927124,1.20087468624115,0.3002186715602875,0.0,-0.05274301767349243,-0.03755369037389755,-0.009388422593474388,-0.5695998072624207,-0.09874740988016129,-0.17192639410495758,-0.042981598526239395,2.7442119121551514,1.3601560592651367,-0.13858431577682495,-0.03464607894420624,4.0,0.8793149590492249,0.4630647897720337,0.11576619744300842,4.0,0.005746364593505859,-0.03645968437194824,-0.00911492109298706,1.5827268362045288,-0.4353896975517273,-0.37895891070365906,-0.09473972767591476,-2.1161534786224365,-0.8576545715332031,-0.15422800183296204,-0.03855700045824051,-4.0,-0.12105663120746613,-0.12251633405685425,-0.030629083514213562,0.05473867058753967,-1.6868518590927124,-0.3430713713169098,-0.08576784282922745,-4.0,-0.1513604074716568,0.4292312264442444,0.1073078066110611,-4.0,-1.427619218826294,-1.20087468624115,-0.3002186715602875,-4.0,-0.8240016102790833,0.209384024143219,0.05234600603580475,-4.0
flat_fake__forward_slow,67,0.07500000298023224,0.0,0.0,0.0,0.0,0.0,0.0,0.0,-1.0,3.097073554992676,0.8808746933937073,0.22021867334842682,0.0,1.8922052383422852,0.2824462950229645,0.07061157375574112,4.0,0.9939134120941162,0.14807359874248505,0.03701839968562126,4.0,-0.1367315649986267,-0.13719475269317627,-0.03429868817329407,0.01736953854560852,0.10682720690965652,0.19588661193847656,0.04897165298461914,-3.3397274017333984,-0.010183513164520264,-0.01675255596637726,-0.004188138991594315,0.2463391125202179,0.4306829273700714,-0.05895891785621643,-0.014739729464054108,4.0,0.7474981546401978,0.1657719910144806,0.04144299775362015,4.0,0.46305716037750244,0.19748365879058838,0.049370914697647095,4.0,-1.3840538263320923,-0.6630713939666748,-0.1657678484916687,-4.000000476837158,0.356512188911438,0.3746919631958008,0.0936729907989502,-0.6817408204078674,0.14351527392864227,-0.8808746933937073,-0.22021867334842682,4.0,3.097073554992676,0.5293840169906616,0.1323460042476654,4.0
flat_fake__forward_slow,68,0.07500000298023224,0.0,0.0,0.0,0.0,0.0,0.0,0.0,-1.0,3.219649076461792,0.9256724715232849,0.23141811788082123,0.0,2.963231086730957,0.6024463176727295,0.15061157941818237,4.000000476837158,0.4971747398376465,0.4098994731903076,0.1024748682975769,3.2728233337402344,-0.20448073744773865,-0.18765923380851746,-0.046914808452129364,-0.630806028842926,3.219649076461792,0.5158866047859192,0.1289716511964798,4.0,0.03236773610115051,0.02008766308426857,0.0050219157710671425,0.4605027437210083,-0.3388804793357849,-0.268900066614151,-0.06722501665353775,-2.6242644786834717,-0.9800912141799927,-0.15422800183296204,-0.03855700045824051,-4.0,-0.14902539551258087,-0.06239813566207886,-0.015599533915519714,-3.2485225200653076,-1.013206124305725,-0.9256724715232849,-0.23141811788082123,-3.2825136184692383,-0.6874038577079773,0.054691970348358154,0.013672992587089539,-4.0,-0.3037062883377075,-0.5608747005462646,-0.14021867513656616,4.0,1.8087657690048218,0.8493840098381042,0.21234600245952606,4.0
flat_fake__forward_slow,69,0.07500000298023224,0.0,0.0,0.0,0.0,0.0,0.0,0.0,-1.0,1.8873919248580933,1.2456724643707275,0.3114181160926819,0.0,0.7573684453964233,0.7186378836631775,0.17965947091579437,1.4523946046829224,-0.906963586807251,0.08989948034286499,0.022474870085716248,-4.0,0.9725897908210754,0.13234075903892517,0.03308518975973129,4.0,0.795436441898346,0.7255489826202393,0.18138724565505981,2.6207797527313232,0.3223300278186798,0.24676944315433502,0.061692360788583755,2.833522319793701,0.19687888026237488,0.051099926233291626,0.012774981558322906,4.0,-0.09871270507574081,-0.11259152740240097,-0.028147881850600243,0.5204559564590454,0.7380338907241821,0.25760185718536377,0.06440046429634094,4.0,-1.6159381866455078,-1.2456724643707275,-0.3114181160926819,-4.0,-0.5206919312477112,-0.2653080224990845,-0.06632700562477112,-4.0,1.1531306505203247,-0.24087470769882202,-0.060218676924705505,4.0,1.8873919248580933,1.1693840026855469,0.2923460006713867,4.0
flat_fake__forward_slow,70,0.07500000298023224,0.0,0.0,0.0,0.0,0.0,0.0,0.0,-1.0,1.5232577323913574,1.4149234294891357,0.35373085737228394,0.0,0.17912423610687256,0.39863789081573486,0.09965947270393372,-4.0,-0.1894541084766388,-0.11961571872234344,-0.02990392968058586,-2.6189401149749756,-1.5232577323913574,-0.18765923380851746,-0.046914808452129364,-4.0,-0.43852877616882324,0.40554898977279663,0.10138724744319916,-4.0,-0.11880579590797424,-0.02741198241710663,-0.006852995604276657,-3.4272677898406982,-0.40250107645988464,-0.268900066614151,-0.06722501665353775,-4.0,-0.2741948366165161,-0.23379400372505188,-0.05844850093126297,-1.5150309801101685,-0.37933284044265747,-0.06239813566207886,-0.015599533915519714,-4.0,0.31736162304878235,-0.9256724715232849,-0.23141811788082123,4.0,0.7274466753005981,0.054691970348358154,0.013672992587089539,4.0,-0.44555115699768066,-0.3943820595741272,-0.0985955148935318,-1.9188419580459595,1.496769905090332,1.4149234294891357,0.35373085737228394,3.0692429542541504
flat_fake__forward_slow,71,0.07500000298023224,0.0,0.0,0.0,0.0,0.0,0.0,0.0,-1.0,3.3792741298675537,1.094923496246338,0.2737308740615845,0.0,1.8640135526657104,0.7186378836631775,0.17965947091579437,4.0,-3.0137174129486084,-0.43961572647094727,-0.10990393161773682,-4.0,-0.9243661165237427,-0.5076591968536377,-0.12691479921340942,-3.999999523162842,-1.2915446758270264,0.085548996925354,0.0213872492313385,-4.0,0.6108295917510986,0.2925879955291748,0.0731469988822937,4.0,0.649185299873352,0.051099926233291626,0.012774981558322906,4.0,0.2868947982788086,0.08620598912239075,0.021551497280597687,4.0,-1.0703648328781128,-0.3823981285095215,-0.09559953212738037,-4.0,0.7484542727470398,-0.6056724786758423,-0.15141811966896057,4.0,0.9318377375602722,0.3746919631958008,0.0936729907989502,4.0,-3.3792741298675537,-0.7143820524215698,-0.17859551310539246,-4.0,0.1034054383635521,1.094923496246338,0.2737308740615845,-3.9999992847442627
flat_fake__forward_slow,72,0.07500000298023224,0.0,0.0,0.0,0.0,0.0,0.0,0.0,-1.0,3.920867919921875,1.0343821048736572,0.2585955262184143,0.0,-0.91832435131073,0.39863789081573486,0.09965947270393372,-4.0,-0.5061259269714355,-0.4894983768463135,-0.12237459421157837,-0.6235331296920776,1.2678272724151611,-0.18765920400619507,-0.04691480100154877,4.0,3.1467347145080566,0.40554898977279663,0.10138724744319916,4.0,-0.8427743911743164,-0.027411997318267822,-0.006852999329566956,-4.0,1.0856953859329224,0.37109991908073425,0.09277497977018356,4.0,-1.2829692363739014,-0.23379400372505188,-0.05844850093126297,-4.0,0.40557992458343506,-0.06239813566207886,-0.015599533915519714,4.0,1.204545021057129,-0.28567248582839966,-0.07141812145709991,4.0,0.0847095400094986,0.15720514953136444,0.03930128738284111,-2.718585252761841,-3.920867919921875,-1.0343821048736572,-0.2585955262184143,-4.000000953674316,0.2709731161594391,0.7749235033988953,0.19373087584972382,-4.0
flat_fake__forward_slow,73,0.07500000298023224,0.0,0.0,0.0,0.0,0.0,0.0,0.0,-1.0,3.0320754051208496,1.354382038116455,0.33859550952911377,0.0,0.2916226387023926,0.31837645173072815,0.07959411293268204,-1.0032680034637451,-0.5229222178459167,-0.5145662426948547,-0.12864156067371368,-0.31334832310676575,-0.008032504469156265,-0.05293917655944824,-0.01323479413986206,1.6840003728866577,-1.105734944343567,0.085548996925354,0.0213872492313385,-4.0,-0.6792923212051392,-0.34741199016571045,-0.08685299754142761,-4.0,0.21625956892967224,0.25496965646743774,0.06374241411685944,-1.45162832736969,0.20766595005989075,0.08620598912239075,0.021551497280597687,4.0,-1.838276743888855,-0.3823981285095215,-0.09559953212738037,-4.0,0.9893398880958557,0.03432750701904297,0.008581876754760742,4.0,3.0320754051208496,0.47720515727996826,0.11930128931999207,4.0,-1.8418127298355103,-1.354382038116455,-0.33859550952911377,-3.9999992847442627,0.6476675271987915,0.6794815063476562,0.16987037658691406,-1.19302499294281
flat_fake__forward_slow,74,0.07500000298023224,0.0,0.0,0.0,0.0,0.0,0.0,0.0,-1.0,2.4710423946380615,1.674381971359253,0.41859549283981323,0.0,0.04608738422393799,0.11415964365005493,0.028539910912513733,-2.5527100563049316,-0.03251750022172928,-0.1945662498474121,-0.04864156246185303,4.0,-1.0880186557769775,-0.37293916940689087,-0.09323479235172272,-4.0,1.0972269773483276,0.40554898977279663,0.10138724744319916,4.0,0.3582448363304138,-0.027411997318267822,-0.006852999329566956,4.0,-0.1933213323354721,-0.06503033638000488,-0.01625758409500122,-4.0,-1.055336833000183,-0.23379400372505188,-0.05844850093126297,-4.0,-0.22224144637584686,-0.2622806131839752,-0.0655701532959938,1.5014690160751343,0.698117196559906,0.3543274998664856,0.0885818749666214,4.0,1.3807895183563232,0.7972051501274109,0.19930128753185272,4.0,-2.4710423946380615,-1.674381971359253,-0.41859549283981323,-3.9999992847442627,-0.5397918820381165,0.3594815135002136,0.0898703783750534,-4.0
flat_fake__forward_slow,75,0.07500000298023224,0.0,0.0,0.0,0.0,0.0,0.0,0.0,-1.0,2.3851282596588135,1.6961641311645508,0.4240410327911377,0.0,0.8453850746154785,0.43415963649749756,0.10853990912437439,4.0,0.3037104606628418,0.12543374300003052,0.03135843575000763,4.0,1.4663877487182617,-0.05293917655944824,-0.01323479413986206,4.0,-0.10929011553525925,0.085548996925354,0.0213872492313385,-4.0,-0.7939620018005371,-0.34741199016571045,-0.08685299754142761,-4.0,0.5550305843353271,0.25496965646743774,0.06374241411685944,4.0,-0.5450207591056824,-0.46721404790878296,-0.11680351197719574,-2.917750597000122,0.41194021701812744,0.05771937966346741,0.014429844915866852,4.0,-2.3851282596588135,0.03432750701904297,0.008581876754760742,-4.0,0.7655197381973267,0.7734411358833313,0.19336028397083282,-0.2970501780509949,-1.7034246921539307,-1.6961641311645508,-0.4240410327911377,-0.27227699756622314,2.138073205947876,0.6794815063476562,0.16987037658691406,4.0
flat_fake__forward_slow,76,0.07500000298023224,0.0,0.0,0.0,0.0,0.0,0.0,0.0,-1.0,2.313192844390869,1.376164197921753,0.34404104948043823,0.0,1.5584427118301392,0.7541596293449402,0.18853990733623505,4.0,0.07543141394853592,0.08793199807405472,0.02198299951851368,-0.4687718152999878,0.2776845097541809,0.19502858817577362,0.048757147043943405,3.099597215652466,1.4681594371795654,0.40554898977279663,0.10138724744319916,4.0,0.21718373894691467,-0.027411997318267822,-0.006852999329566956,4.0,-0.26654884219169617,-0.06503033638000488,-0.01625758409500122,-4.0,-0.5208344459533691,-0.5074293613433838,-0.12685734033584595,-0.5026914477348328,-0.40905314683914185,-0.2622806131839752,-0.0655701532959938,-4.0,-1.618809700012207,-0.28567248582839966,-0.07141812145709991,-4.0,0.06266237795352936,0.45344114303588867,0.11336028575897217,-4.0,0.5446997880935669,-1.376164197921753,-0.34404104948043823,3.9999992847442627,2.313192844390869,0.9994814991950989,0.24987037479877472,4.0
flat_fake__forward_slow,77,0.07500000298023224,0.0,0.0,0.0,0.0,0.0,0.0,0.0,-1.0,1.9610642194747925,1.3194814920425415,0.3298703730106354,0.0,1.100219964981079,1.0137048959732056,0.2534262239933014,3.2443158626556396,-0.1968677043914795,-0.1256677806377411,-0.03141694515943527,-2.669997215270996,-1.098419189453125,-0.124971404671669,-0.03124285116791725,-4.0,0.7696771621704102,0.678645133972168,0.169661283493042,3.4137017726898193,0.4480304419994354,0.2925879955291748,0.0731469988822937,4.0,0.32226666808128357,0.22544240951538086,0.056360602378845215,3.6309094429016113,-0.07829069346189499,-0.18742936849594116,-0.04685734212398529,4.0,1.9455180168151855,0.05771937966346741,0.014429844915866852,4.0,-1.0405582189559937,-0.6056724786758423,-0.15141811966896057,-4.0,0.002566918730735779,0.13344115018844604,0.03336028754711151,-4.0,1.2923909425735474,-1.056164264678955,-0.26404106616973877,3.9999992847442627,1.9610642194747925,1.3194814920425415,0.3298703730106354,4.0
flat_fake__forward_slow,78,0.07500000298023224,0.0,0.0,0.0,0.0,0.0,0.0,0.0,-1.0,1.5297267436981201,1.033316731452942,0.2583291828632355,0.0,0.17304721474647522,0.6937049031257629,0.17342622578144073,-4.0,0.289542019367218,0.18573957681655884,0.04643489420413971,3.892591953277588,0.9176127314567566,0.19502858817577362,0.048757147043943405,4.0,0.004810698330402374,0.35864514112472534,0.08966128528118134,-4.0,0.1378747522830963,0.17655307054519653,0.04413826763629913,-1.4504365921020508,-0.7423012256622314,-0.09455758333206177,-0.023639395833015442,-4.0,-0.9053731560707092,-0.5074293613433838,-0.12685734033584595,-4.0,1.019449234008789,0.37771937251091003,0.09442984312772751,4.0,-0.9598260521888733,-0.8712877035140991,-0.21782192587852478,-3.3201904296875,-0.2369731217622757,-0.14436954259872437,-0.03609238564968109,-3.4726338386535645,1.5297267436981201,-0.7361642718315125,-0.1840410679578781,4.0,0.9379285573959351,1.033316731452942,0.2583291828632355,-3.577059507369995
flat_fake__forward_slow,79,0.07500000298023224,0.0,0.0,0.0,0.0,0.0,0.0,0.0,-1.0,2.717111110687256,1.3533167839050293,0.3383291959762573,0.0,2.0640389919281006,1.0137048959732056,0.2534262239933014,4.0,0.04843118041753769,0.08275827765464783,0.020689569413661957,-1.2872662544250488,0.6375300288200378,0.5150285959243774,0.12875714898109436,4.0,1.4276742935180664,0.678645133972168,0.169661283493042,4.0,0.6472886800765991,0.49655306339263916,0.12413826584815979,4.0,-0.2904263734817505,-0.2414591759443283,-0.06036479398608208,-1.8362699747085571,0.17303705215454102,-0.18742936849594116,-0.04685734212398529,4.0,-1.8759006261825562,0.05771937966346741,0.014429844915866852,-4.0,-1.02614426612854,-0.9874300956726074,-0.24685752391815186,-1.4517799615859985,0.8860449194908142,0.17563045024871826,0.043907612562179565,4.0,0.006399616599082947,-0.4161642789840698,-0.10404106974601746,4.0,2.717111110687256,1.3533167839050293,0.3383291959762573,4.000000953674316
flat_fake__forward_slow,80,0.07500000298023224,0.0,0.0,0.0,0.0,0.0,0.0,0.0,-1.0,3.2870068550109863,1.6733167171478271,0.4183291792869568,0.0,0.7317104339599609,0.8022090196609497,0.20055225491523743,-2.6436984539031982,0.49253207445144653,0.39008864760398865,0.09752216190099716,3.84162974357605,-3.2870068550109863,0.19502860307693481,0.048757150769233704,-4.0,0.6826327443122864,0.681635856628418,0.1704089641571045,0.037384033203125,0.1953519582748413,0.27065223455429077,0.06766305863857269,-2.823760509490967,0.30231624841690063,0.07854081690311432,0.01963520422577858,4.0,-0.26874691247940063,-0.24841752648353577,-0.06210438162088394,-0.7623519897460938,2.5650622844696045,0.37771937251091003,0.09442984312772751,4.0,0.5950079560279846,-0.6674301028251648,-0.1668575257062912,4.0,0.651181161403656,0.4956304430961609,0.12390761077404022,4.0,0.5535447001457214,-0.0961642861366272,-0.0240410715341568,4.0,2.4709627628326416,1.6733167171478271,0.4183291792869568,3.9999992847442627
flat_fake__forward_slow,81,0.07500000298023224,0.0,0.0,0.0,0.0,0.0,0.0,0.0,-1.0,2.0110089778900146,1.722229242324829,0.4305573105812073,0.0,0.3539108633995056,0.4822090268135071,0.12055225670337677,-4.0,-1.5142220258712769,0.07008865475654602,0.017522163689136505,-4.0,-0.11260063946247101,-0.03569333255290985,-0.008923333138227463,-2.884024143218994,1.0023353099822998,0.9221604466438293,0.23054011166095734,3.0065574645996094,-0.2925605773925781,-0.049347758293151855,-0.012336939573287964,-4.0,0.15274503827095032,0.13419398665428162,0.033548496663570404,0.695664644241333,-0.7660219669342041,-0.5684175491333008,-0.1421043872833252,-4.000000476837158,-1.7052634954452515,0.05771937966346741,0.014429844915866852,-4.0,-1.4208438396453857,-0.9874300956726074,-0.24685752391815186,-4.0,2.0110089778900146,0.8156304359436035,0.20390760898590088,4.0,-1.8954888582229614,-0.4161642789840698,-0.10404106974601746,-4.0,1.7385334968566895,1.722229242324829,0.4305573105812073,0.6114065647125244
flat_fake__forward_slow,82,0.07500000298023224,0.0,0.0,0.0,0.0,0.0,0.0,0.0,-1.0,4.301673412322998,1.7803418636322021,0.44508546590805054,0.0,-0.8741364479064941,0.16220903396606445,0.04055225849151611,-4.0,-2.3152523040771484,-0.2499113380908966,-0.06247783452272415,-4.0,-3.1287097930908203,-0.35569334030151367,-0.08892333507537842,-4.0,-4.301673412322998,0.6021604537963867,0.15054011344909668,-4.0,1.6430100202560425,0.27065223455429077,0.06766305863857269,4.0,-0.1129046380519867,-0.05112998187541962,-0.012782495468854904,-2.31654953956604,0.6909665465354919,-0.24841755628585815,-0.06210438907146454,4.0,3.5483176708221436,0.37771937251091003,0.09442984312772751,4.0,0.6729276776313782,-0.6674301028251648,-0.1668575257062912,4.0,3.3693017959594727,1.1356303691864014,0.28390759229660034,3.9999992847442627,-1.802324652671814,-0.7361642718315125,-0.1840410679578781,-4.0,1.799712896347046,1.7803418636322021,0.44508546590805054,0.7264077663421631
flat_fake__forward_slow,83,0.07500000298023224,0.0,0.0,0.0,0.0,0.0,0.0,0.0,-1.0,3.33241605758667,1.4603419303894043,0.3650854825973511,0.0,-0.8813701868057251,-0.15779095888137817,-0.03944773972034454,-4.0,-0.1798320710659027,-0.19735187292099,-0.0493379682302475,0.6569933295249939,0.5186224579811096,-0.035693347454071045,-0.008923336863517761,4.0,-0.8417875170707703,0.2821604609489441,0.07054011523723602,-4.0,-0.5804741382598877,-0.049347758293151855,-0.012336939573287964,-4.0,-0.13946369290351868,-0.11738026142120361,-0.029345065355300903,-0.8281285166740417,-1.6116020679473877,-0.5684175491333008,-0.1421043872833252,-4.0,0.658096969127655,0.5880025625228882,0.14700064063072205,2.6285400390625,0.7265278697013855,-0.34743010997772217,-0.08685752749443054,4.0,1.5410687923431396,1.439709186553955,0.35992729663848877,3.800985336303711,-3.33241605758667,-1.056164264678955,-0.26404106616973877,-4.0,-0.9638687968254089,1.4603419303894043,0.3650854825973511,-3.9999992847442627
flat_fake__forward_slow,84,0.07500000298023224,0.0,0.0,0.0,0.0,0.0,0.0,0.0,-1.0,2.9832608699798584,1.440186858177185,0.36004671454429626,0.0,1.6349927186965942,0.16220903396606445,0.04055225849151611,4.0,-2.8057961463928223,-0.5173518657684326,-0.12933796644210815,-4.0,-2.0299365520477295,-0.35569334030151367,-0.08892333507537842,-4.0,-0.6286587119102478,-0.037839531898498535,-0.009459882974624634,-4.0,0.4738166034221649,0.27065223455429077,0.06766305863857269,4.0,0.057776063680648804,0.013986974954605103,0.0034967437386512756,1.6420904397964478,1.1223450899124146,-0.24841755628585815,-0.06210438907146454,4.0,-1.6223200559616089,0.26800256967544556,0.06700064241886139,-4.0,0.7476842999458313,-0.02743011713027954,-0.006857529282569885,4.0,1.440346121788025,1.440186858177185,0.36004671454429626,0.005970895290374756,-2.9832608699798584,-1.376164197921753,-0.34404104948043823,-3.9999992847442627,0.5059568285942078,1.1403419971466064,0.2850854992866516,-3.9999992847442627
flat_fake__forward_slow,85,0.07500000298023224,0.0,0.0,0.0,0.0,0.0,0.0,0.0,-1.0,3.1749298572540283,1.6961641311645508,0.4240410327911377,0.0,-0.16030943393707275,-0.07967981696128845,-0.019919954240322113,-3.0236105918884277,-0.1570759117603302,-0.2471449077129364,-0.0617862269282341,3.377587080001831,0.2151477336883545,-0.035693347454071045,-0.008923336863517761,4.0,2.6576054096221924,0.2821604609489441,0.07054011523723602,4.0,-0.48733845353126526,-0.049347758293151855,-0.012336939573287964,-4.0,0.5557761192321777,0.33398696780204773,0.08349674195051193,4.0,-0.9218004941940308,-0.5684175491333008,-0.1421043872833252,-4.0,0.3211416006088257,0.30785685777664185,0.07696421444416046,0.4981786012649536,0.49864187836647034,0.2925698757171631,0.07314246892929077,4.0,-0.3054659366607666,1.1201868057250977,0.2800467014312744,-4.000000953674316,-3.1749298572540283,-1.6961641311645508,-0.4240410327911377,-3.9999992847442627,0.6440066695213318,0.8203420042991638,0.20508550107479095,-4.0
flat_fake__forward_slow,86,0.07500000298023224,0.0,0.0,0.0,0.0,0.0,0.0,0.0,-1.0,1.893559217453003,1.7879104614257812,0.4469776153564453,0.0,1.397671103477478,0.24032017588615417,0.060080043971538544,4.0,-1.1834379434585571,-0.5671448707580566,-0.14178621768951416,-3.999999523162842,-0.5688775181770325,-0.35569334030151367,-0.08892333507537842,-4.0,-1.154561161994934,-0.037839531898498535,-0.009459882974624634,-4.0,-0.001077204942703247,-0.0131448432803154,-0.00328621082007885,0.4525364339351654,-0.5561569929122925,0.013986974954605103,0.0034967437386512756,-4.0,1.011237382888794,-0.24841755628585815,-0.06210438907146454,4.0,-1.893559217453003,-0.012143135070800781,-0.0030357837677001953,-4.0,0.01570192724466324,0.08491891622543335,0.021229729056358337,-2.595637083053589,1.717111587524414,1.4401867389678955,0.3600466847419739,3.9999992847442627,-1.8184925317764282,-1.7879104614257812,-0.4469776153564453,-1.1468291282653809,0.7006967663764954,0.7306081056594849,0.18265202641487122,-1.1216737031936646
flat_fake__forward_slow,87,0.07500000298023224,0.0,0.0,0.0,0.0,0.0,0.0,0.0,-1.0,1.2474902868270874,1.4679105281829834,0.36697763204574585,0.0,-0.5042945742607117,-0.07967981696128845,-0.019919954240322113,-4.0,0.2655417323112488,-0.247144877910614,-0.0617862194776535,4.0,-1.2474902868270874,-0.6756933331489563,-0.16892333328723907,-4.0,0.346610426902771,0.2504979372024536,0.0626244843006134,3.6042184829711914,-0.44926151633262634,-0.3331448435783386,-0.08328621089458466,-4.0,0.7061460018157959,0.33398696780204773,0.08349674195051193,4.0,-0.8044082522392273,-0.5684175491333008,-0.1421043872833252,-4.0,1.049168586730957,0.30785685777664185,0.07696421444416046,4.0,-0.07999976724386215,-0.03877009451389313,-0.009692523628473282,-1.5461126565933228,-0.08317150175571442,1.1201868057250977,0.2800467014312744,-3.9999992847442627,-0.9190751314163208,-1.4679105281829834,-0.36697763204574585,3.9999992847442627,0.7399290204048157,0.7375987768173218,0.18439969420433044,0.08738338947296143
flat_fake__forward_slow,88,0.07500000298023224,0.0,0.0,0.0,0.0,0.0,0.0,0.0,-1.0,2.2867071628570557,1.6821417808532715,0.42053544521331787,0.0,1.390485167503357,0.24032017588615417,0.060080043971538544,4.0,-0.6383106112480164,-0.5405191779136658,-0.13512979447841644,-3.6671788692474365,0.5854154229164124,-0.35569334030151367,-0.08892333507537842,4.0,-2.2633678913116455,-0.06950205564498901,-0.017375513911247253,-4.0,-0.152960866689682,-0.19800686836242676,-0.04950171709060669,1.6892247200012207,-0.17039096355438232,0.013986974954605103,0.0034967437386512756,-4.0,0.8275042772293091,-0.24841755628585815,-0.06210438907146454,4.0,-0.5405738949775696,-0.012143135070800781,-0.0030357837677001953,-4.0,-2.2867071628570557,-0.35877007246017456,-0.08969251811504364,-4.0,1.7369897365570068,1.4401867389678955,0.3600466847419739,3.9999992847442627,-1.7535520792007446,-1.6821417808532715,-0.42053544521331787,-2.6778907775878906,-0.05543402582406998,0.41759878396987915,0.10439969599246979,-4.0
flat_fake__forward_slow,89,0.07500000298023224,0.0,0.0,0.0,0.0,0.0,0.0,0.0,-1.0,2.1188392639160156,1.3621418476104736,0.3405354619026184,0.0,0.6308386921882629,0.5332090854644775,0.13330227136611938,3.661111354827881,1.4592663049697876,-0.22051918506622314,-0.055129796266555786,4.0,-1.7150999307632446,-0.6756933331489563,-0.16892333328723907,-4.0,0.5736365914344788,0.2504979372024536,0.0626244843006134,4.0,-0.5803724527359009,-0.48478105664253235,-0.12119526416063309,-3.5846774578094482,0.8391956090927124,0.33398696780204773,0.08349674195051193,4.0,0.03789649158716202,-0.033682018518447876,-0.008420504629611969,2.684194326400757,1.294310212135315,0.30785685777664185,0.07696421444416046,4.0,-0.3654203414916992,-0.36375778913497925,-0.09093944728374481,-0.062346458435058594,0.0062246620655059814,1.1201868057250977,0.2800467014312744,-3.9999992847442627,-0.06539483368396759,-1.3621418476104736,-0.3405354619026184,3.9999992847442627,2.1188392639160156,0.7375987768173218,0.18439969420433044,4.0
flat_fake__forward_slow,90,0.07500000298023224,0.0,0.0,0.0,0.0,0.0,0.0,0.0,-1.0,5.078250885009766,1.0421419143676758,0.26053547859191895,0.0,0.44073042273521423,0.46385008096694946,0.11596252024173737,-0.8669875860214233,-0.28074273467063904,-0.26568683981895447,-0.06642170995473862,-0.5645956993103027,5.078250885009766,-0.35569334030151367,-0.08892333507537842,4.0,0.617663562297821,0.5258721113204956,0.1314680278301239,3.4421772956848145,0.4714936912059784,-0.16478106379508972,-0.04119526594877243,4.0,-1.3226665258407593,0.013986974954605103,0.0034967437386512756,-4.0,-0.4447309970855713,-0.34196874499320984,-0.08549218624830246,-3.853584051132202,0.6834824085235596,0.589576005935669,0.14739400148391724,3.521489381790161,-3.722724676132202,-0.6837577819824219,-0.17093944549560547,-4.0,-0.42221248149871826,0.800186812877655,0.20004670321941376,-4.0,2.1878204345703125,-1.0421419143676758,-0.26053547859191895,3.9999992847442627,0.03894978016614914,0.41759878396987915,0.10439969599246979,-4.0
flat_fake__forward_slow,91,0.07500000298023224,0.0,0.0,0.0,0.0,0.0,0.0,0.0,-1.0,3.241569995880127,1.0037577152252197,0.25093942880630493,0.0,2.1309282779693604,0.7838500738143921,0.19596251845359802,4.0,1.4736026525497437,0.05431315302848816,0.01357828825712204,4.0,2.2962822914123535,-0.035693347454071045,-0.008923336863517761,4.0,-0.3819493353366852,0.20587211847305298,0.051468029618263245,-4.0,0.05201108008623123,-0.0021869540214538574,-0.0005467385053634644,2.032426357269287,-0.20753701031208038,-0.1521560251712799,-0.03803900629281998,-2.0767874717712402,0.4625948667526245,-0.021968752145767212,-0.005492188036441803,4.0,-0.49817389249801636,0.2695760130882263,0.06739400327205658,-4.0,-1.2185744047164917,-1.0037577152252197,-0.25093942880630493,-3.9999992847442627,0.07598187029361725,0.4801868200302124,0.1200467050075531,-4.0,2.1555638313293457,-0.7221419215202332,-0.1805354803800583,4.0,3.241569995880127,0.7375987768173218,0.18439969420433044,4.0
flat_fake__forward_slow,92,0.07500000298023224,0.0,0.0,0.0,0.0,0.0,0.0,0.0,-1.0,2.056055784225464,1.1038501262664795,0.2759625315666199,0.0,1.568352222442627,1.1038501262664795,0.2759625315666199,4.000000953674316,0.004374317824840546,0.0168590247631073,0.004214756190776825,-0.46817660331726074,-0.1375100314617157,-0.11205586045980453,-0.028013965114951134,-0.9545314311981201,2.056055784225464,0.5258721113204956,0.1314680278301239,4.0,0.009078174829483032,0.00626189261674881,0.0015654731541872025,0.10561058670282364,0.007431045174598694,-0.032465726137161255,-0.008116431534290314,1.496128797531128,-0.2828086316585541,-0.21759864687919617,-0.05439966171979904,-2.445373773574829,0.942179799079895,0.589576005935669,0.14739400148391724,4.0,-0.8056392669677734,-0.855168879032135,-0.21379221975803375,1.8573604822158813,-0.009185031056404114,0.16018682718276978,0.040046706795692444,-4.0,0.6007063388824463,-0.4021419286727905,-0.10053548216819763,4.0,0.9932671189308167,0.9293500185012817,0.23233750462532043,2.396890640258789
flat_fake__forward_slow,93,0.07500000298023224,0.0,0.0,0.0,0.0,0.0,0.0,0.0,-1.0,2.593233585357666,0.8664847612380981,0.21662119030952454,0.0,-0.1024804413318634,0.7838501334190369,0.19596253335475922,-4.0,0.420992374420166,0.31995904445648193,0.07998976111412048,3.788750410079956,2.593233585357666,0.2079441249370575,0.051986031234264374,4.0,0.25378331542015076,0.32180550694465637,0.08045137673616409,-2.550832509994507,0.3300403356552124,0.24909570813179016,0.06227392703294754,3.0354228019714355,-0.0844174399971962,-0.07142951339483261,-0.017857378348708153,-0.48704734444618225,0.478328675031662,0.10240134596824646,0.025600336492061615,4.0,-0.6021062731742859,0.2695760130882263,0.06739400327205658,-4.0,-0.8702567219734192,-0.8664847612380981,-0.21662119030952454,-0.14144852757453918,0.8960424661636353,0.4801868200302124,0.1200467050075531,4.0,0.2440790981054306,-0.0821419358253479,-0.020535483956336975,4.0,0.26202696561813354,0.6093500256538391,0.15233750641345978,-4.0
flat_fake__forward_slow,94,0.07500000298023224,0.0,0.0,0.0,0.0,0.0,0.0,0.0,-1.0,2.0780868530273438,1.1038501262664795,0.2759625315666199,0.0,2.0780868530273438,1.1038501262664795,0.2759625315666199,4.0,-0.44865578413009644,-4.094839096069336e-05,-1.023709774017334e-05,-4.0,0.10700663924217224,0.13224101066589355,0.03306025266647339,-0.9462889432907104,1.1286349296569824,0.6418055295944214,0.16045138239860535,4.000000476837158,0.28234678506851196,0.2740340232849121,0.06850850582122803,0.31172895431518555,-0.29301193356513977,-0.23761633038520813,-0.05940408259630203,-2.0773351192474365,0.1700105369091034,0.15310823917388916,0.03827705979347229,0.6338361501693726,-0.012105777859687805,0.05831466615200043,0.014578666538000107,-2.6407668590545654,-0.3164043128490448,-0.5464847683906555,-0.13662119209766388,4.0,0.20069251954555511,0.27056610584259033,0.06764152646064758,-2.6202590465545654,0.9606413841247559,0.23785805702209473,0.05946451425552368,4.0,1.754645824432373,0.9293500185012817,0.23233750462532043,4.0
flat_fake__forward_slow,95,0.07500000298023224,0.0,0.0,0.0,0.0,0.0,0.0,0.0,-1.0,1.744974136352539,1.095846176147461,0.27396154403686523,0.0,-0.9597498178482056,0.7838501334190369,0.19596253335475922,-4.0,0.19197824597358704,0.1439734548330307,0.035993363708257675,1.8001800775527954,-1.4548354148864746,-0.18775898218154907,-0.04693974554538727,-4.0,-1.3208034038543701,0.32180553674697876,0.08045138418674469,-4.0,0.5597318410873413,0.488307386636734,0.1220768466591835,2.678417205810547,-0.6792570352554321,-0.5576163530349731,-0.1394040882587433,-4.000000476837158,0.6143958568572998,0.4731082320213318,0.11827705800533295,4.0,1.744974136352539,0.37831467390060425,0.09457866847515106,4.0,0.19086238741874695,-0.2264847755432129,-0.05662119388580322,4.0,0.09482063353061676,0.13875700533390045,0.03468925133347511,-1.647613763809204,0.11885426938533783,0.14860521256923676,0.03715130314230919,-1.115660548210144,1.151344895362854,1.095846176147461,0.27396154403686523,2.0812020301818848
flat_fake__forward_slow,96,0.07500000298023224,0.0,0.0,0.0,0.0,0.0,0.0,0.0,-1.0,2.09836745262146,0.7758461833000183,0.19396154582500458,0.0,0.08638696372509003,0.46385014057159424,0.11596253514289856,-4.0,-0.43517929315567017,-0.17602653801441193,-0.04400663450360298,-4.0,0.9300789833068848,0.13224101066589355,0.03306025266647339,4.0,0.7634829878807068,0.6418055295944214,0.16045138239860535,4.0,0.6144944429397583,0.5829476714134216,0.1457369178533554,1.183003544807434,-0.6261943578720093,-0.6090498566627502,-0.15226246416568756,-0.6429188251495361,-2.09836745262146,0.15310823917388916,0.03827705979347229,-4.0,-1.1765577793121338,0.05831468105316162,0.014578670263290405,-4.0,-0.6280763745307922,-0.5276784896850586,-0.13191962242126465,-3.7649214267730713,0.10321226716041565,0.11209845542907715,0.028024613857269287,-0.3332318663597107,-0.4752839207649231,-0.17139478027820587,-0.04284869506955147,-4.0,0.04398491233587265,0.7758461833000183,0.19396154582500458,-4.0
flat_fake__forward_slow,97,0.07500000298023224,0.0,0.0,0.0,0.0,0.0,0.0,0.0,-1.0,4.832404613494873,1.095846176147461,0.27396154403686523,0.0,1.0547500848770142,0.7838501334190369,0.19596253335475922,4.0,0.718654990196228,0.1439734548330307,0.035993363708257675,4.0,-4.014993667602539,-0.18775898218154907,-0.04693974554538727,-4.0,-2.698361396789551,0.32180553674697876,0.08045138418674469,-4.0,1.0603971481323242,0.9029476642608643,0.22573691606521606,4.0,0.25052201747894287,-0.2890498638153076,-0.0722624659538269,4.0,0.9169489741325378,0.4731082320213318,0.11827705800533295,4.0,2.862769603729248,0.37831467390060425,0.09457866847515106,4.0,-0.02385314553976059,-0.20767849683761597,-0.05191962420940399,4.0,1.0887022018432617,0.4320984482765198,0.10802461206912994,4.0,2.753389596939087,0.14860521256923676,0.03715130314230919,4.0,4.832404613494873,1.095846176147461,0.27396154403686523,4.0
flat_fake__forward_slow,98,0.07500000298023224,0.0,0.0,0.0,0.0,0.0,0.0,0.0,-1.0,2.0561888217926025,1.3381874561309814,0.33454686403274536,0.0,0.38504645228385925,0.48474735021591187,0.12118683755397797,-3.7387847900390625,-0.6145474910736084,-0.17602653801441193,-0.04400663450360298,-4.0,1.8948293924331665,0.13224101066589355,0.03306025266647339,4.0,2.0561888217926025,0.6418055295944214,0.16045138239860535,4.0,-1.4497947692871094,0.5829476714134216,0.1457369178533554,-4.0,-0.4048839509487152,-0.3759254217147827,-0.09398135542869568,-1.0859445333480835,-0.24367773532867432,0.15310823917388916,0.03827705979347229,-4.0,-0.2620368003845215,0.05831468105316162,0.014578670263290405,-4.0,-0.07823621481657028,-0.11059678345918655,-0.02764919586479664,1.2135214805603027,0.0165347158908844,0.12042564153671265,0.03010641038417816,-3.8959102630615234,-0.45404404401779175,-0.17139478027820587,-0.04284869506955147,-4.0,1.4189679622650146,1.3381874561309814,0.33454686403274536,3.029266119003296
flat_fake__forward_slow,99,0.07500000298023224,0.0,0.0,0.0,0.0,0.0,0.0,0.0,-1.0,3.1017658710479736,1.6581873893737793,0.4145468473434448,0.0,-0.4514094889163971,0.16474735736846924,0.04118683934211731,-4.0,0.6912423372268677,0.1439734548330307,0.035993363708257675,4.0,-2.9568099975585938,-0.18775898218154907,-0.04693974554538727,-4.0,-2.795612096786499,0.32180553674697876,0.08045138418674469,-4.0,-0.0004738271236419678,0.262947678565979,0.06573691964149475,-4.0,-0.8614492416381836,-0.6959254145622253,-0.17398135364055634,-4.0,1.1133246421813965,0.4731082320213318,0.11827705800533295,4.0,2.614975690841675,0.37831467390060425,0.09457866847515106,4.0,0.5490935444831848,0.20940321683883667,0.05235080420970917,4.0,2.766296863555908,0.4404256343841553,0.11010640859603882,4.0,0.3031342625617981,0.14860521256923676,0.03715130314230919,4.0,3.1017658710479736,1.6581873893737793,0.4145468473434448,3.9999992847442627
flat_fake__forward_slow,100,0.07500000298023224,0.0,0.0,0.0,0.0,0.0,0.0,0.0,-1.0,2.9503567218780518,1.3381874561309814,0.33454686403274536,0.0,-0.16682377457618713,-0.08393099904060364,-0.02098274976015091,-3.1084794998168945,-1.409347414970398,-0.17602653801441193,-0.04400663450360298,-4.0,-1.176495909690857,-0.5077589750289917,-0.12693974375724792,-4.0,0.4200170934200287,0.3954641819000244,0.0988660454750061,0.9207330942153931,0.7755106687545776,0.5829476714134216,0.1457369178533554,4.0,0.07226639986038208,-0.3759254217147827,-0.09398135542869568,4.0,-2.175305128097534,0.15310823917388916,0.03827705979347229,-4.0,-2.4777097702026367,0.05831468105316162,0.014578670263290405,-4.0,-0.6555468440055847,-0.11059677600860596,-0.02764919400215149,-4.0,0.6776056289672852,0.6183106303215027,0.15457765758037567,2.223562479019165,-2.9503567218780518,-0.17139478027820587,-0.04284869506955147,-4.0,-0.9437271952629089,1.3381874561309814,0.33454686403274536,-3.9999992847442627
flat_fake__forward_slow,101,0.07500000298023224,0.0,0.0,0.0,0.0,0.0,0.0,0.0,-1.0,2.4293758869171143,1.0181875228881836,0.2545468807220459,0.0,0.8778183460235596,0.236068993806839,0.05901724845170975,4.0,-0.36783987283706665,-0.31988656520843506,-0.07997164130210876,-1.798250436782837,-0.15734446048736572,-0.24494808912277222,-0.061237022280693054,3.2851362228393555,-2.4293758869171143,0.07546418905258179,0.018866047263145447,-4.0,0.3827820122241974,0.43282341957092285,0.10820585489273071,-1.8765531778335571,-0.6741772890090942,-0.5996143817901611,-0.14990359544754028,-2.796112060546875,0.7919758558273315,0.4731082320213318,0.11827705800533295,4.0,1.591081142425537,0.37831467390060425,0.09457866847515106,4.0,-1.6321048736572266,-0.4305967688560486,-0.10764919221401215,-4.0,1.6794910430908203,0.9383106231689453,0.23457765579223633,4.0,0.6757364273071289,0.14860521256923676,0.03715130314230919,4.0,0.3072865605354309,1.0181875228881836,0.2545468807220459,-3.9999992847442627
flat_fake__forward_slow,102,0.07500000298023224,0.0,0.0,0.0,0.0,0.0,0.0,0.0,-1.0,2.269047737121582,1.089920997619629,0.2724802494049072,0.0,-0.07396075129508972,0.003546684980392456,0.000886671245098114,-2.906528949737549,0.09149359911680222,-0.011351436376571655,-0.002837859094142914,3.856689214706421,-1.7822132110595703,-0.5649480819702148,-0.1412370204925537,-4.0,-0.09283747524023056,-0.050762057304382324,-0.012690514326095581,-1.5778281688690186,0.6546748876571655,0.5992120504379272,0.1498030126094818,2.07985782623291,0.14270949363708496,-0.2796143889427185,-0.06990359723567963,4.0,-0.27449309825897217,0.15310823917388916,0.03827705979347229,-4.0,-0.013749629259109497,0.08426645398139954,0.021066613495349884,-3.675602912902832,1.0936200618743896,-0.11059677600860596,-0.02764919400215149,4.0,1.1404578685760498,1.089920997619629,0.2724802494049072,1.895129680633545,-2.269047737121582,-0.17139478027820587,-0.04284869506955147,-4.0,-0.10686249285936356,0.698187530040741,0.17454688251018524,-4.0
flat_fake__forward_slow,103,0.07500000298023224,0.0,0.0,0.0,0.0,0.0,0.0,0.0,-1.0,2.314737558364868,1.0181875228881836,0.2545468807220459,0.0,0.6708944439888,0.3235466778278351,0.08088666945695877,4.0,-2.095186233520508,-0.3313514292240143,-0.08283785730600357,-4.0,0.8578832745552063,-0.24494808912277222,-0.061237022280693054,4.0,1.5983686447143555,0.2692379355430603,0.06730948388576508,4.0,-0.4807775318622589,0.2792120575904846,0.06980301439762115,-4.0,-1.2605037689208984,-0.5996143817901611,-0.14990359544754028,-4.0,1.1116158962249756,0.4731082320213318,0.11827705800533295,4.0,1.1697837114334106,0.40426644682884216,0.10106661170721054,4.0,-2.314737558364868,-0.4305967688560486,-0.10764919221401215,-4.0,-0.05342163145542145,0.7699210047721863,0.19248025119304657,-4.0,-1.8118046522140503,-0.4913947582244873,-0.12284868955612183,-4.0,1.1320918798446655,1.0181875228881836,0.2545468807220459,4.0
flat_fake__forward_slow,104,0.07500000298023224,0.0,0.0,0.0,0.0,0.0,0.0,0.0,-1.0,2.193951368331909,0.73011714220047,0.1825292855501175,0.0,0.5833443403244019,0.518394947052002,0.1295987367630005,2.435603380203247,0.929033637046814,-0.011351436376571655,-0.002837859094142914,4.0,-1.2402490377426147,-0.5649480819702148,-0.1412370204925537,-4.0,1.2103338241577148,0.5892379283905029,0.14730948209762573,4.0,0.3227807283401489,0.31188857555389404,0.07797214388847351,0.4084564745426178,-0.4362376630306244,-0.477081835269928,-0.119270458817482,1.5316568613052368,0.08269969373941422,0.18030184507369995,0.04507546126842499,-3.6600799560546875,2.193951368331909,0.7242664098739624,0.1810666024684906,3.999999523162842,-0.23856353759765625,-0.2865718603134155,-0.07164296507835388,1.8003114461898804,0.5334662795066833,0.5925799608230591,0.14814499020576477,-2.2167630195617676,-0.809691309928894,-0.73011714220047,-0.1825292855501175,-2.984029769897461,-0.31633734703063965,0.698187530040741,0.17454688251018524,-4.0
flat_fake__forward_slow,105,0.07500000298023224,0.0,0.0,0.0,0.0,0.0,0.0,0.0,-1.0,4.812230110168457,0.8881993293762207,0.22204983234405518,0.0,-0.8883551359176636,0.19839495420455933,0.04959873855113983,-4.0,0.1488495171070099,0.1087992787361145,0.027199819684028625,1.5018839836120605,4.812230110168457,-0.24494808912277222,-0.061237022280693054,4.0,0.653481662273407,0.6374207139015198,0.15935517847537994,0.602284848690033,-0.4441094696521759,-0.008111417293548584,-0.002027854323387146,-4.0,-0.10656628012657166,-0.19919517636299133,-0.04979879409074783,3.473583221435547,-0.23677188158035278,-0.1325034499168396,-0.0331258624792099,-3.9100663661956787,-0.8036816120147705,0.4042664170265198,0.10106660425662994,-4.0,-2.920271158218384,-0.6065718531608582,-0.15164296329021454,-4.0,0.9867391586303711,0.8881993293762207,0.22204983234405518,3.695242166519165,1.6647918224334717,-0.41011714935302734,-0.10252928733825684,4.0,0.9005915522575378,0.8499905467033386,0.21249763667583466,1.8975377082824707
flat_fake__forward_slow,106,0.07500000298023224,0.0,0.0,0.0,0.0,0.0,0.0,0.0,-1.0,2.8033628463745117,1.1699905395507812,0.2924976348876953,0.0,0.7693331241607666,0.518394947052002,0.1295987367630005,4.0,-0.03065396100282669,0.004209347069263458,0.0010523367673158646,-1.307374119758606,-0.4019768238067627,-0.36271965503692627,-0.09067991375923157,-1.472144603729248,0.16711151599884033,0.31742072105407715,0.07935518026351929,-4.0,0.47668495774269104,0.31188857555389404,0.07797214388847351,4.0,-0.29340651631355286,-0.2698536813259125,-0.06746342033147812,-0.8832313418388367,0.9263827800750732,0.18749654293060303,0.04687413573265076,4.0,0.5917001366615295,0.5448417067527771,0.13621042668819427,1.7571911811828613,-0.5432993173599243,-0.5591174364089966,-0.13977935910224915,0.593180239200592,1.0112287998199463,0.9804714322090149,0.24511785805225372,1.153401255607605,-0.30141007900238037,-0.3285868465900421,-0.08214671164751053,1.0191287994384766,2.8033628463745117,1.1699905395507812,0.2924976348876953,4.0
flat_fake__forward_slow,107,0.07500000298023224,0.0,0.0,0.0,0.0,0.0,0.0,0.0,-1.0,2.0716660022735596,0.9301925301551819,0.23254813253879547,0.0,0.19422632455825806,0.2752684950828552,0.0688171237707138,-3.0390806198120117,0.03001841902732849,0.023566151037812233,0.005891537759453058,0.2419600486755371,-0.03273007646203041,-0.11522747576236725,-0.028806868940591812,3.0936522483825684,2.0716660022735596,0.6374207139015198,0.15935517847537994,4.0,-0.5167427062988281,-0.008111417293548584,-0.002027854323387146,-4.0,0.3801267445087433,0.05014631152153015,0.012536577880382538,4.0,-0.5109525322914124,-0.1325034499168396,-0.0331258624792099,-4.0,0.10886485874652863,0.22484171390533447,0.05621042847633362,-4.0,0.25255993008613586,-0.23911744356155396,-0.05977936089038849,4.0,0.08246786892414093,0.6604714393615723,0.16511785984039307,-4.0,-1.3884830474853516,-0.6485868692398071,-0.16214671730995178,-4.000000476837158,0.8502598404884338,0.9301925301551819,0.23254813253879547,-2.9974751472473145
flat_fake__forward_slow,108,0.07500000298023224,0.0,0.0,0.0,0.0,0.0,0.0,0.0,-1.0,2.532978057861328,1.2501925230026245,0.31254813075065613,0.0,0.6221902370452881,0.5354598164558411,0.13386495411396027,3.2523915767669678,-0.5429520010948181,-0.29643383622169495,-0.07410845905542374,-4.0,-1.884716272354126,-0.4352274537086487,-0.10880686342716217,-4.0,-1.4876785278320312,0.31742072105407715,0.07935518026351929,-4.0,0.9739179611206055,0.31188857555389404,0.07797214388847351,4.0,-0.8952666521072388,-0.2698536813259125,-0.06746342033147812,-4.0,1.0927624702453613,0.18749654293060303,0.04687413573265076,4.0,-1.171169638633728,-0.09515827894210815,-0.02378956973552704,-4.0,0.8929638266563416,0.08088254928588867,0.020220637321472168,4.0,2.003760576248169,0.9804714322090149,0.24511785805225372,4.0,-0.8125048875808716,-0.7715253829956055,-0.19288134574890137,-1.536731481552124,2.532978057861328,1.2501925230026245,0.31254813075065613,4.0
flat_fake__forward_slow,109,0.07500000298023224,0.0,0.0,0.0,0.0,0.0,0.0,0.0,-1.0,1.6284903287887573,1.0915253162384033,0.27288132905960083,0.0,-0.6597758531570435,0.21545982360839844,0.05386495590209961,-4.0,-0.007520206272602081,-0.07974861562252045,-0.01993715390563011,2.7085652351379395,-0.9741439819335938,-0.7552274465560913,-0.18880686163902283,-4.0,-0.2241998016834259,-0.0025792717933654785,-0.0006448179483413696,-4.0,-0.5161246061325073,-0.008111417293548584,-0.002027854323387146,-4.0,0.27184155583381653,0.05014631152153015,0.012536577880382538,4.0,-0.5810198187828064,-0.1325034499168396,-0.0331258624792099,-4.0,0.5884591341018677,0.22484171390533447,0.05621042847633362,4.0,0.047959573566913605,0.05619031935930252,0.01404757983982563,-0.3086528778076172,-0.03786316514015198,0.6604714393615723,0.16511785984039307,-4.0,-1.6284903287887573,-1.0915253162384033,-0.27288132905960083,-3.9999992847442627,0.14294368028640747,0.9301925301551819,0.23254813253879547,-4.0
flat_fake__forward_slow,110,0.07500000298023224,0.0,0.0,0.0,0.0,0.0,0.0,0.0,-1.0,1.9965770244598389,1.4115252494812012,0.3528813123703003,0.0,-0.17484065890312195,-0.07726553082466125,-0.019316382706165314,-3.659066915512085,0.005346827208995819,-0.015927031636238098,-0.0039817579090595245,0.7977698445320129,1.0868072509765625,-0.4352274537086487,-0.10880686342716217,4.0,0.9331793189048767,0.31742072105407715,0.07935518026351929,4.0,-0.42078474164009094,-0.31761640310287476,-0.07940410077571869,-3.868812322616577,-1.026848316192627,-0.2698536813259125,-0.06746342033147812,-4.0,0.14845791459083557,0.07821756601333618,0.019554391503334045,2.6340126991271973,-0.6403595209121704,-0.09515827894210815,-0.02378956973552704,-4.0,-1.2225278615951538,-0.2638096809387207,-0.06595242023468018,-4.0,0.23710830509662628,0.3429490923881531,0.08573727309703827,-3.969029426574707,-1.7595512866973877,-1.4115252494812012,-0.3528813123703003,-3.9999992847442627,1.9965770244598389,1.2501925230026245,0.31254813075065613,4.0
flat_fake__forward_slow,111,0.07500000298023224,0.0,0.0,0.0,0.0,0.0,0.0,0.0,-1.0,1.942818284034729,1.570192575454712,0.392548143863678,0.0,1.942818284034729,0.24273446202278137,0.06068361550569534,4.0,0.013222716748714447,0.005935279652476311,0.0014838199131190777,0.2732788920402527,-1.2671260833740234,-0.7552274465560913,-0.18880686163902283,-4.0,-0.6685092449188232,-0.0025792717933654785,-0.0006448179483413696,-4.0,0.21398282051086426,0.002383589744567871,0.0005958974361419678,4.0,0.14900806546211243,0.0442926287651062,0.01107315719127655,3.9268288612365723,0.3625178933143616,0.2914428114891052,0.0728607028722763,2.665315628051758,0.49854665994644165,0.22484171390533447,0.05621042847633362,4.0,0.3401080369949341,0.056190311908721924,0.014047577977180481,4.0,0.5760688781738281,0.5177889466285706,0.12944723665714264,2.1854982376098633,0.4231948256492615,-1.0915253162384033,-0.27288132905960083,3.9999992847442627,1.7703596353530884,1.570192575454712,0.392548143863678,4.000000953674316
flat_fake__forward_slow,112,0.07500000298023224,0.0,0.0,0.0,0.0,0.0,0.0,0.0,-1.0,3.8358192443847656,1.2567729949951172,0.3141932487487793,0.0,-0.12584269046783447,-0.03369840979576111,-0.008424602448940277,-3.455410957336426,0.7356941103935242,0.3259352743625641,0.08148381859064102,4.0,3.0834341049194336,-0.4352274537086487,-0.10880686342716217,4.0,3.8358192443847656,0.31742072105407715,0.07935518026351929,4.0,-1.6124330759048462,-0.31761640310287476,-0.07940410077571869,-4.0,0.13950148224830627,0.11569926887750626,0.028924817219376564,0.8925830125808716,-0.4976072907447815,-0.028557181358337402,-0.007139295339584351,-4.0,-0.8131479620933533,-0.09515827894210815,-0.02378956973552704,-4.0,-0.5325580835342407,-0.2638096809387207,-0.06595242023468018,-4.0,-0.2641980051994324,0.19778895378112793,0.04944723844528198,-4.0,-0.4215226173400879,-0.7715253233909607,-0.19288133084774017,4.0,1.1522997617721558,1.2567729949951172,0.3141932487487793,-3.9177448749542236
flat_fake__forward_slow,113,0.07500000298023224,0.0,0.0,0.0,0.0,0.0,0.0,0.0,-1.0,3.189601421356201,1.576772928237915,0.39419323205947876,0.0,1.7388700246810913,0.2863015830516815,0.07157539576292038,4.0,-0.11883921176195145,0.00593528151512146,0.001483820378780365,-4.0,-1.0660626888275146,-0.7552274465560913,-0.18880686163902283,-4.0,0.9770719408988953,0.6374207139015198,0.15935517847537994,4.0,0.809316873550415,0.002383589744567871,0.0005958974361419678,4.0,-0.1854550689458847,-0.11016648262739182,-0.027541620656847954,-2.823322057723999,0.9240550994873047,0.2914428114891052,0.0728607028722763,4.0,-0.4492461681365967,-0.36072421073913574,-0.09018105268478394,-3.3195741176605225,-0.44402262568473816,-0.3989693820476532,-0.0997423455119133,-1.6894962787628174,1.641983985900879,0.5177889466285706,0.12944723665714264,4.0,-0.14407359063625336,-0.45152533054351807,-0.11288133263587952,4.0,3.189601421356201,1.576772928237915,0.39419323205947876,3.9999992847442627
flat_fake__forward_slow,114,0.07500000298023224,0.0,0.0,0.0,0.0,0.0,0.0,0.0,-1.0,2.7931294441223145,1.2567729949951172,0.3141932487487793,0.0,-0.8627411723136902,-0.03369840979576111,-0.008424602448940277,-4.0,-0.4436333179473877,-0.31406471133232117,-0.07851617783308029,-4.0,0.29735127091407776,-0.4352274537086487,-0.10880686342716217,4.0,-1.927712321281433,0.31742072105407715,0.07935518026351929,-4.0,0.12805017828941345,0.09663353115320206,0.024158382788300514,1.1781243085861206,-0.18453532457351685,-0.16594311594963074,-0.041485778987407684,-0.6972079277038574,0.25684085488319397,0.2654913663864136,0.0663728415966034,-0.32439306378364563,2.7931294441223145,-0.040724217891693115,-0.010181054472923279,4.0,-0.6447461247444153,-0.5833019614219666,-0.14582549035549164,-2.304157257080078,-0.663239061832428,0.19778895378112793,0.04944723844528198,-4.0,0.2609989643096924,-0.13152533769607544,-0.03288133442401886,4.0,0.48490768671035767,1.2567729949951172,0.3141932487487793,-3.9999992847442627
